timestamp,x,y,z,vx,vy,vz,ax,ay,az
1659093222058,0.0,0.0,0.0,0.0,0.0,0.0,0.0,0.0,0.0
1659093222059,0.0,0.0,0.0,0.0,0.0,0.0,0.0,0.0,0.0
1659093222063,-4.893400273431325e-06,0.00016413952107541263,1.46131776546099e-06,-0.0004008635296486318,0.009501004591584206,0.0005566527834162116,-0.01662648282945156,0.27243778109550476,0.036559317260980606
1659093222067,-7.103520601958735e-06,0.0002149751817341894,5.006592800782528e-06,-0.00048387001152150333,0.010858229361474514,0.0007618460222147405,-0.016622617840766907,0.2722676694393158,0.03737271949648857
1659093222072,-9.728925761010032e-06,0.0002722976205404848,5.0449125410523266e-06,-0.0005668820231221616,0.012182902544736862,0.0004692543006967753,-0.016619442030787468,0.2701103985309601,0.0062196822836995125
1659093222077,-1.2774342394550331e-05,0.0003364797739777714,6.4628834479663055e-06,-0.0006503553595393896,0.01352370623499155,0.0004002971691079438,-0.016639938578009605,0.26961731910705566,0.0010157772339880466
1659093222082,-1.6239173419307917e-05,0.00040561010246165097,7.129623099899618e-06,-0.0007339781150221825,0.01472256425768137,0.0002975548559334129,-0.016657590866088867,0.2634561061859131,-0.0034286738373339176
1659093222087,-1.6751611838117242e-05,0.00047603502753190696,5.2497125579975545e-06,-0.0003371576895006001,0.0154161611571908,-8.91599920578301e-05,0.021746445447206497,0.22582758963108063,-0.028689680621027946
1659093222092,-1.8164802895626053e-05,0.0005556067917495966,4.317064394854242e-06,-0.0002281855995533988,0.016734657809138298,-0.0001844586804509163,0.02176872082054615,0.2438456416130066,-0.024001440033316612
1659093222097,-1.9032264390261844e-05,0.0006428608321584761,3.2121481581270928e-06,-0.00011909743625437841,0.01812729239463806,-0.00025657008518464863,0.02178339473903179,0.25501564145088196,-0.020868733525276184
1659093222102,-9.56631720328005e-06,-9.912083623930812e-05,6.07289512117859e-05,0.00018243053636979312,0.010102881118655205,0.0011355055030435324,0.00736001692712307,0.3467022478580475,0.02531035989522934
1659093222107,-8.581512702221517e-06,-4.7282544983318076e-05,6.713249604217708e-05,0.0002186874917242676,0.011595639400184155,0.0012952634133398533,0.0073516820557415485,0.33614519238471985,0.026765037328004837
1659093222112,-7.391070994344773e-06,1.3440494512906298e-05,7.606606232002378e-05,0.00025581568479537964,0.013178568333387375,0.001573461457155645,0.007367088925093412,0.33264029026031494,0.03196129947900772
1659093222117,-6.006527655699756e-06,8.290863479487598e-05,8.710133988643065e-05,0.00029326038202270865,0.014807832427322865,0.001895238528959453,0.007384756579995155,0.3316057622432709,0.0369013175368309
1659093222122,-4.452242137631401e-06,0.00015363846614491194,9.085219062399119e-05,0.0003261380479671061,0.0156746506690979,0.0011933112982660532,0.0070510851219296455,0.2811816334724426,-0.02740965411067009
1659093222127,-2.7258247428108007e-06,0.00023430879809893668,9.849373600445688e-05,0.00036182114854454994,0.01700552925467491,0.0011812468292191625,0.007066688966006041,0.27839651703834534,-0.0227627195417881
1659093222132,-7.153004844440147e-05,4.8298916226485744e-05,0.00014215493865776807,-0.0006385805900208652,0.014940530061721802,0.002168956445530057,0.002065060893073678,0.28675293922424316,0.02520097978413105
1659093222137,-7.792055839672685e-05,0.0001297612179769203,0.00014787296822760254,-0.0009546222863718867,0.016635658219456673,0.0017754973378032446,-0.017422201111912727,0.2998929023742676,-0.004286515526473522
1659093222142,-8.298792090499774e-05,0.0002159260184271261,0.0001581366523168981,-0.0010422399500384927,0.018033791333436966,0.0019299151608720422,-0.017392925918102264,0.29407453536987305,0.005584845319390297
1659093222147,-8.845379488775507e-05,0.0003083399496972561,0.00016922122449614108,-0.0011292359558865428,0.019366536289453506,0.0020836605690419674,-0.017374880611896515,0.2879474461078644,0.011097671464085579
1659093222152,-9.262483945349231e-05,0.00040344326407648623,0.00018181669292971492,-0.0009750444442033768,0.020251000300049782,0.0023795231245458126,0.0018766800640150905,0.25396278500556946,0.02794167399406433
1659093222157,-9.751223115017638e-05,0.0005081880954094231,0.00019398212316446006,-0.0009664238896220922,0.02170589566230774,0.002416954142972827,0.0018424271838739514,0.2704077959060669,0.018658477813005447
1659093222162,-0.00010239708353765309,0.0006207284168340266,0.0002051803021458909,-0.0009589921683073044,0.02317453734576702,0.002276073908433318,0.0017837206833064556,0.2775806188583374,0.004042790271341801
1659093222167,-4.223833093419671e-05,0.00027726066764444113,-3.010143518622499e-05,0.0005092560313642025,0.018500156700611115,-0.0037701316177845,0.014927498064935207,0.3057664930820465,-0.10085470229387283
1659093222172,-3.9574144466314465e-05,0.000373499613488093,-4.651333438232541e-05,0.0005834854673594236,0.02002009004354477,-0.00388692831620574,0.014984531328082085,0.30529555678367615,-0.08040792495012283
1659093222177,-3.6505934986053035e-05,0.00047748343786224723,-6.388335896190256e-05,0.0006583562935702503,0.021553751081228256,-0.004034091718494892,0.01501504611223936,0.30560970306396484,-0.06976886093616486
1659093222182,-3.302890763734467e-05,0.0005886514554731548,-7.693812221987173e-05,0.0007351660751737654,0.022952808067202568,-0.0033897957764565945,0.015157314017415047,0.2923504710197449,0.003427070565521717
1659093222187,-2.9169803383410908e-05,0.0007071105646900833,-9.380002302350476e-05,0.0008106093155220151,0.024342164397239685,-0.0034089793916791677,0.015134738758206367,0.2855793237686157,4.544854164123535e-07
1659093222192,-2.4929911887738854e-05,0.0008321502828039229,-0.00011091392661910504,0.0008860875386744738,0.025702692568302155,-0.0034293567296117544,0.015123732388019562,0.2812739610671997,-0.001307130791246891
1659093222197,-2.0320065232226625e-05,0.000963072117883712,-0.00013237578968983144,0.000960508652497083,0.026955069974064827,-0.004048819653689861,0.015032107010483742,0.2702723741531372,-0.050006646662950516
1659093222202,-1.3309687346918508e-05,0.00020333363499958068,-5.375012551667169e-05,0.0010982808889821172,0.017027324065566063,-0.0030563443433493376,0.015788085758686066,0.3169901669025421,-0.03811519593000412
1659093222207,-7.590539098600857e-06,0.00029222271405160427,-6.841271533630788e-05,0.0011780160712078214,0.018596427515149117,-0.0031683852430433035,0.015801161527633667,0.31637293100357056,-0.03507305681705475
1659093222213,-1.4950082913856022e-06,0.00038848124677315354,-8.428804721916094e-05,0.0012571907136589289,0.020137548446655273,-0.00331891723908484,0.01580267772078514,0.3150700628757477,-0.034266773611307144
1659093222217,5.022313416702673e-06,0.00048494397196918726,-0.00010047762043541297,0.001339439651928842,0.020965754985809326,-0.00340895913541317,0.015989165753126144,0.27413392066955566,-0.02963363379240036
1659093222222,1.1918288691958878e-05,0.000593781762290746,-0.00011778357293223962,0.001419505337253213,0.022411447018384933,-0.0035439501516520977,0.01599748805165291,0.2782425880432129,-0.028918934985995293
1659093222227,1.921077819133643e-05,0.0007093339809216559,-0.0001351738756056875,0.0014995960518717766,0.02380472607910633,-0.003625023877248168,0.016006311401724815,0.27833425998687744,-0.026208005845546722
1659093222232,-7.853629358578473e-05,0.0002297152968822047,2.9442779123201035e-05,-0.00037370994687080383,0.017365923151373863,-0.0010568792931735516,-0.008999011479318142,0.3244926631450653,-0.01710801012814045
1659093222237,-8.054717909544706e-05,0.0003203535743523389,2.357142511755228e-05,-0.00041938357753679156,0.018953919410705566,-0.0011989693157374859,-0.009011576883494854,0.32282721996307373,-0.01985797844827175
1659093222243,-8.275179425254464e-05,0.000418729439843446,1.7379035853082314e-05,-0.00046435423428192735,0.020526336506009102,-0.0012926950585097075,-0.009011078625917435,0.32120370864868164,-0.019637707620859146
1659093222248,-8.22219590190798e-05,0.0005181720480322838,1.3037537428317592e-05,-0.00019691159832291305,0.021378565579652786,-0.0011661581229418516,0.010291006416082382,0.2753615081310272,-0.00795044656842947
1659093222252,-8.30546923680231e-05,0.0006290390738286078,4.9876807679538615e-06,-0.00014570668281521648,0.022810734808444977,-0.0014140617568045855,0.010256845504045486,0.27836939692497253,-0.019181497395038605
1659093222258,-8.364654058823362e-05,0.0007474136655218899,-3.4611011869856156e-06,-9.45135107031092e-05,0.02427072450518608,-0.0016010130057111382,0.010246817022562027,0.28126826882362366,-0.023048944771289825
1659093222263,-8.400213118875399e-05,0.0008735279552638531,-1.4431650924962014e-05,-4.521457594819367e-05,0.025774681940674782,-0.0020814272575080395,0.01008845679461956,0.28585129976272583,-0.05158133804798126
1659093222268,3.168264447594993e-05,0.00014180982543621212,-8.330928540090099e-05,0.002013603923842311,0.015230703167617321,-0.0033011764753609896,0.01976471208035946,0.2614508867263794,-0.033518917858600616
1659093222273,4.197378075332381e-05,0.00022107508266344666,-9.978347952710465e-05,0.002112066838890314,0.01653197966516018,-0.003450735006481409,0.01976354606449604,0.2613320052623749,-0.03315092250704765
1659093222278,5.275396324577741e-05,0.0003126341907773167,-0.00011999664275208488,0.00220893113873899,0.018496761098504066,-0.0039173923432827,0.019646111875772476,0.3047156035900116,-0.053077176213264465
1659093222283,6.404007581295446e-05,0.00040666834684088826,-0.00014085358998272568,0.0023066801950335503,0.019836220890283585,-0.004232024308294058,0.01962267979979515,0.29602837562561035,-0.05539839342236519
1659093222288,7.58091700845398e-05,0.0005059707327745855,-0.00016378356667701155,0.00240410421974957,0.021069711074233055,-0.004583714064210653,0.01959618739783764,0.2866221070289612,-0.05825085937976837
1659093222293,8.807711128611118e-05,0.0006069656810723245,-0.00018387327145319432,0.002503220923244953,0.02171126939356327,-0.004326749127358198,0.019714001566171646,0.2351239025592804,-0.013017009943723679
1659093222298,0.00010083604138344526,0.0007178616360761225,-0.0002055475051747635,0.0026018903590738773,0.022993527352809906,-0.004414511378854513,0.01972719095647335,0.24601729214191437,-0.015326366759836674
1659093222303,-0.00011203688336536288,0.00022761682339478284,0.000130861735669896,-0.0006444765022024512,0.017553113400936127,0.0021433185320347548,0.007927891798317432,0.30683794617652893,0.042047131806612015
1659093222308,-0.00011516977974679321,0.0003181577194482088,0.00014219415606930852,-0.0006049528601579368,0.019016869366168976,0.002360031707212329,0.007928606122732162,0.30448827147483826,0.04226658120751381
1659093222313,-0.00011806831025751308,0.00041001997306011617,0.0001438212930224836,-0.0005632882821373641,0.01988828182220459,0.0015368101885542274,0.008039689622819424,0.2686673104763031,-0.016426533460617065
1659093222318,-0.00012075239646947011,0.000513472652528435,0.00015216515748761594,-0.000522265094332397,0.02130739949643612,0.0015530083328485489,0.008063038811087608,0.2727503776550293,-0.011143174022436142
1659093222323,-0.00012323512055445462,0.0006246261182241142,0.00016086956020444632,-0.0004812143451999873,0.022778639569878578,0.001591829233802855,0.008082086220383644,0.2773144543170929,-0.007140524219721556
1659093222327,-0.00012386606249492615,0.0007452982827089727,0.0001686338073341176,-0.00019939796766266227,0.0245205145329237,0.0016093079466372728,0.027414146810770035,0.3003976047039032,0.00016824062913656235
1659093222332,-2.9250002626213245e-05,0.00011447095312178135,5.732523277401924e-05,0.0016120143700391054,0.014612311497330666,-0.0009626697865314782,0.03364618495106697,0.2564827799797058,-0.03220336139202118
1659093222337,-2.0798526747967117e-05,0.0001911587023641914,5.282908023218624e-05,0.001779950107447803,0.01592758670449257,-0.00106450030580163,0.03365194424986839,0.25769945979118347,-0.029985666275024414
1659093222342,-1.7399843272869475e-05,0.0002823538379743695,5.397330460255034e-05,0.0013211279874667525,0.0180716160684824,-0.0005142326117493212,-0.005036571528762579,0.30900511145591736,0.011869682930409908
1659093222348,-1.0893901162489783e-05,0.00037497247103601694,4.9954145652009174e-05,0.0012946991482749581,0.01944918930530548,-0.000623745727352798,-0.0050834245048463345,0.29988110065460205,0.002653108909726143
1659093222353,-4.529823854682036e-06,0.0004720887227449566,4.425080987857655e-05,0.0012675971956923604,0.02062375843524933,-0.0008308078395202756,-0.005138319917023182,0.2859607934951782,-0.006795232184231281
1659093222358,1.6700774949640618e-06,0.000566247443202883,3.5518300137482584e-05,0.0012343028793111444,0.020720381289720535,-0.0013424298958852887,-0.00568032544106245,0.19875134527683258,-0.038015540689229965
1659093222363,7.761121196381282e-06,0.0006722061079926789,2.8311374990153126e-05,0.001206215238198638,0.022000573575496674,-0.001483021304011345,-0.005632964428514242,0.22514240443706512,-0.03345634788274765
1659093222368,-0.00015688368875999004,0.0002607872011139989,0.00022198139049578458,-0.0015167167875915766,0.01816418208181858,0.0032484836410731077,-0.013105652295053005,0.32540276646614075,0.052271291613578796
1659093222373,-0.00016204791609197855,0.000357599783455953,0.0002326885878574103,-0.0012851684587076306,0.0200278889387846,0.002832443453371525,0.0063385446555912495,0.3413194417953491,0.008688950911164284
1659093222378,-0.00016847706865519285,0.0004597323713824153,0.00024144456256181002,-0.0012562195770442486,0.021541520953178406,0.0024033025838434696,0.006251431070268154,0.33208075165748596,-0.013982843607664108
1659093222383,-0.0001747663482092321,0.0005690716207027435,0.00024613746791146696,-0.001227726461365819,0.023020900785923004,0.0018198727630078793,0.006175734102725983,0.3250747621059418,-0.03385288640856743
1659093222388,-0.00018091927631758153,0.0006780028925277293,0.00024212863354478031,-0.0012030047364532948,0.023411063477396965,0.0003306657599750906,0.005795575212687254,0.23433029651641846,-0.1217360869050026
1659093222392,-0.0001868803519755602,0.0007976517081260681,0.0002417133655399084,-0.0011738133616745472,0.024656256660819054,-0.00016117120685521513,0.005838850978761911,0.24173252284526825,-0.10995465517044067
1659093222397,-0.00011082537821494043,0.00018236032337881625,0.00020330653933342546,8.59090214362368e-05,0.015068097040057182,0.002848454285413027,0.00986375194042921,0.2636527717113495,0.05263464152812958
1659093222402,-0.00011031881149392575,0.0002617212012410164,0.0002179381117457524,0.00013439836038742214,0.016458941623568535,0.0030739945359528065,0.009862321428954601,0.26650673151016235,0.05107026919722557
1659093222408,-0.00010618909436743706,0.0003539019962772727,0.00022183649707585573,0.0005115247913636267,0.018411733210086823,0.002145485719665885,0.02861803025007248,0.3003557622432709,-0.016093995422124863
1659093222413,-0.00010328013013349846,0.0004489736456889659,0.00023256568238139153,0.0006545331561937928,0.019841454923152924,0.0020806596148759127,0.02861827425658703,0.2966415286064148,-0.015318210236728191
1659093222418,-9.96422313619405e-05,0.0005525816231966019,0.00024251527793239802,0.0007976918132044375,0.021371467038989067,0.001984256086871028,0.028616888448596,0.2984909117221832,-0.016120728105306625
1659093222423,-9.695762128103524e-05,0.000665839237626642,0.00024988618679344654,0.0007002586498856544,0.02309255301952362,0.0016870636027306318,0.009358256123960018,0.31132158637046814,-0.02919899858534336
1659093222428,-9.330817556474358e-05,0.0007853893912397325,0.0002576348779257387,0.0007477228064090014,0.024588048458099365,0.0016382797621190548,0.0093849403783679,0.3054477572441101,-0.019863151013851166
1659093222432,-9.002199658425525e-05,0.00016395615239161998,8.705670188646764e-05,0.0006145198130980134,0.014121191576123238,-0.0007685141172260046,0.009342864155769348,0.2593202292919159,-0.006980015896260738
1659093222437,-8.973692456493154e-05,0.00023681977472733706,9.018527634907514e-05,0.0003464594774413854,0.015406619757413864,-0.0001655614614719525,-0.010121405124664307,0.26180610060691833,0.028534922748804092
1659093222442,-8.805681864032522e-05,0.00031839145231060684,8.778385381447151e-05,0.00029626471223309636,0.01689171977341175,-0.00029104010900482535,-0.010164106264710426,0.2719494700431824,0.013087420724332333
1659093222447,-8.665036875754595e-05,0.0004076004261150956,8.406776760239154e-05,0.00024556773132644594,0.01838706247508526,-0.000467664678581059,-0.010194833390414715,0.27802133560180664,0.0022598933428525925
1659093222452,-8.38505438878201e-05,0.0005075002554804087,7.428361277561635e-05,0.00043397347326390445,0.020309729501605034,-0.0014232132816687226,0.008940231055021286,0.31489452719688416,-0.06972094625234604
1659093222457,-8.155671821441501e-05,0.000612798088695854,6.638035119976848e-05,0.0004789034719578922,0.021797573193907738,-0.001726847724057734,0.008947765454649925,0.3072246015071869,-0.06572531163692474
1659093222462,-7.903643563622609e-05,0.0007252959185279906,5.732230420107953e-05,0.0005239929305389524,0.02327473647892475,-0.001983524998649955,0.008960234001278877,0.3035993278026581,-0.061296265572309494
1659093222467,-9.600126213626936e-05,0.00021402140555437654,0.00012525678903330117,0.000514587271027267,0.01570851169526577,0.00011981041461694986,0.02735055424273014,0.27937597036361694,-0.01908448524773121
1659093222472,-9.308886365033686e-05,0.00029577797977253795,0.00012575808796100318,0.0006513260887004435,0.017080161720514297,3.77624346583616e-05,0.027351990342140198,0.2781369984149933,-0.018421586602926254
1659093222477,-8.95001066965051e-05,0.0003840545832645148,0.00012697764032054693,0.0007881680503487587,0.018426429480314255,4.2176117858616635e-05,0.027363700792193413,0.2763918340206146,-0.014596600085496902
1659093222482,-8.694271673448384e-05,0.0004772782267536968,0.00013209700409788638,0.0006796569796279073,0.019524402916431427,0.0005815248587168753,0.007736655883491039,0.2557142674922943,0.029943663626909256
1659093222487,-8.34491802379489e-05,0.0005780113860964775,0.00013538257917389274,0.0007183330599218607,0.020821958780288696,0.0007295974646694958,0.007737498730421066,0.25761350989341736,0.02978532202541828
1659093222492,-7.975832704687491e-05,0.0006853745435364544,0.000139452880830504,0.0007571455207653344,0.022126737982034683,0.0009028547792695463,0.0077438801527023315,0.2587170898914337,0.03139076009392738
1659093222497,-7.58811438572593e-05,0.0008020386449061334,0.00014060315152164549,0.0007955949404276907,0.023825516924262047,0.0005187260685488582,0.007728760130703449,0.2907593250274658,-0.011089174076914787
1659093222502,-9.142063208855689e-05,0.00024236254103016108,9.897787822410464e-05,0.0004316344566177577,0.016273677349090576,-0.0011905429419130087,0.006963026709854603,0.27953383326530457,-0.03633532300591469
1659093222507,-8.919971151044592e-05,0.00032764760544523597,9.176720050163567e-05,0.0004659373080357909,0.017701225355267525,-0.0014279501046985388,0.00695573166012764,0.28069499135017395,-0.03848644718527794
1659093222512,-8.679764869157225e-05,0.0004203071293886751,8.35501414258033e-05,0.0005004338454455137,0.01914334110915661,-0.0016561292577534914,0.006952283903956413,0.2819458246231079,-0.039642803370952606
1659093222517,-8.425978012382984e-05,0.0005233503179624677,7.879762415541336e-05,0.0005304017686285079,0.020863251760601997,-0.0014416174963116646,0.006670697126537561,0.2976773977279663,-0.015054935589432716
1659093222523,-8.152219379553571e-05,0.0006300071836449206,7.109159196261317e-05,0.0005635728011839092,0.022165430709719658,-0.001559796161018312,0.006656596902757883,0.2871902585029602,-0.017477156594395638
1659093222527,-7.86189193604514e-05,0.0007433404098264873,6.26268083578907e-05,0.0005967063480056822,0.023495662957429886,-0.0016914175357669592,0.0066474368795752525,0.28254571557044983,-0.01942381262779236
1659093222532,-7.384876516880468e-05,0.0008632997050881386,5.287877138471231e-05,0.0008729338878765702,0.0247824564576149,-0.0019021128537133336,0.026091264560818672,0.27356618642807007,-0.02660066820681095
1659093222538,-0.00010543125972617418,0.00028179967193864286,9.248674905393273e-05,0.0004877117171417922,0.01709434576332569,-0.0007274111267179251,0.02481764741241932,0.29220694303512573,-0.009653295390307903
1659093222543,-0.00010268873302266002,0.00037112203426659107,8.863112452672794e-05,0.0006116691511124372,0.018577054142951965,-0.0007855762378312647,0.02481546252965927,0.29308292269706726,-0.010049042291939259
1659093222548,-0.00010211647168034688,0.000466658006189391,8.03725779405795e-05,0.0004294509708415717,0.01992846094071865,-0.0012937908759340644,0.0053788283839821815,0.2853561341762543,-0.03897784277796745
1659093222552,-9.990396938519552e-05,0.0005693007260560989,7.349106454057619e-05,0.000456320121884346,0.021303506568074226,-0.0014813498128205538,0.005379004403948784,0.2826647162437439,-0.03859276697039604
1659093222557,-9.755705104907975e-05,0.0006781751289963722,6.568440585397184e-05,0.0004831736732739955,0.022624807432293892,-0.0016677462263032794,0.005378325469791889,0.2788441777229309,-0.03831908106803894
1659093222562,-9.509196388535202e-05,0.0007932305452413857,5.921525735175237e-05,0.0005079805268906057,0.02393890544772148,-0.0016196995275095105,0.005206383299082518,0.2780018150806427,-0.022903572767972946
1659093222567,-8.068933675531298e-05,0.00020353056606836617,0.00010032501450041309,0.000549706572201103,0.016019122675061226,-0.0007168868905864656,0.005683170631527901,0.3066946268081665,-0.013320698402822018
1659093222572,-7.787290815031156e-05,0.00028669025050476193,9.653050801716745e-05,0.0005780525971204042,0.017503302544355392,-0.0007861875928938389,0.005681704264134169,0.3050214648246765,-0.013411445543169975
1659093222577,-7.490822463296354e-05,0.0003808498731814325,9.737345681060106e-05,0.0006054728291928768,0.019380921497941017,-0.0002448011073283851,0.005607848986983299,0.3292030394077301,0.028207119554281235
1659093222582,-7.180374814197421e-05,0.0004820071335416287,9.497693827142939e-05,0.0006332719931378961,0.021039390936493874,-0.00021779202506877482,0.005590661428868771,0.32976391911506653,0.02323995530605316
1659093222587,-6.85617487761192e-05,0.000592621392570436,9.222525841323659e-05,0.0006609634729102254,0.022775284945964813,-0.00022724831069353968,0.005576117429882288,0.33291056752204895,0.01874646358191967
1659093222592,-6.522061448777094e-05,0.0007104335236363113,8.572501974413171e-05,0.0006831216742284596,0.0242021307349205,-0.0007534159230999649,0.005125833675265312,0.3071261942386627,-0.025063779205083847
1659093222597,-6.17355908616446e-05,0.0008358284248970449,8.120456186588854e-05,0.0007089569699019194,0.025670306757092476,-0.0008300654590129852,0.005140944849699736,0.29982924461364746,-0.0197508092969656
1659093222602,-0.00014147505862638354,0.0002099499834002927,0.00021308736177161336,-0.00043151722638867795,0.016409825533628464,0.0016050112899392843,0.0036081632133573294,0.2931075394153595,0.008110258728265762
1659093222607,-0.00014355729217641056,0.00029582419665530324,0.00022055761655792594,-0.0004131757013965398,0.017890146002173424,0.001597622991539538,0.003602375742048025,0.2936534583568573,0.006422427017241716
1659093222612,-0.00014557476970367134,0.00038747789221815765,0.00022208970040082932,-0.00039751737494952977,0.019225364550948143,0.001005020341835916,0.00344299734570086,0.28628480434417725,-0.028825895860791206
1659093222617,-0.00014747437671758235,0.000487455545226112,0.0002281412307638675,-0.0003791912749875337,0.020691459998488426,0.0010157405631616712,0.0034750858321785927,0.28820914030075073,-0.02036779560148716
1659093222622,-0.0001492590527050197,0.0005943143623881042,0.0002359155478188768,-0.00036020137486048043,0.022119782865047455,0.0011702204355970025,0.0035150982439517975,0.28769662976264954,-0.009372525848448277
1659093222627,-0.00015263260866049677,0.0007069020648486912,0.0002508847101125866,-0.0005826919805258512,0.023387162014842033,0.00212936382740736,-0.0157946590334177,0.27645525336265564,0.057200461626052856
1659093222632,-0.00011338803597027436,0.0001716017141006887,0.00015378666284959763,-0.00017451152962166816,0.015818268060684204,-0.0011503860587254167,-0.014476008713245392,0.2902985215187073,-0.05316951125860214
1659093222637,-0.00011441589595051482,0.00025479408213868737,0.0001466224348405376,-0.0002467517915647477,0.017308484762907028,-0.0014773043803870678,-0.014485924504697323,0.2917584478855133,-0.055469390004873276
1659093222642,-0.00011305798398097977,0.0003475049452390522,0.0001393303246004507,-1.734914258122444e-05,0.01902858540415764,-0.001644728472456336,0.004625409375876188,0.30752530694007874,-0.047302134335041046
1659093222647,-0.00011306363740004599,0.00044634469668380916,0.0001323464821325615,6.650994237134e-06,0.020550888031721115,-0.0016954588936641812,0.004660685546696186,0.3067082166671753,-0.037431590259075165
1659093222652,-0.00011293399438727647,0.0005539059638977051,0.00012732361210510135,3.1436371500603855e-05,0.022163312882184982,-0.0015627227257937193,0.004710735287517309,0.3100159764289856,-0.02400306984782219
1659093222657,-0.00011436970089562237,0.0006721243844367564,0.00013310073700267822,-0.0001851918059401214,0.02403157576918602,-6.481769378297031e-05,-0.014583862386643887,0.32776951789855957,0.09034512937068939
1659093222662,-0.00011546374298632145,0.000796555308625102,0.00013411544205155224,-0.0002586308110039681,0.025530971586704254,0.00020959772518835962,-0.01464803796261549,0.31467628479003906,0.07371324300765991
1659093222667,-0.0001042883814079687,0.00025103340158239007,8.201327727874741e-05,-0.00028341790311969817,0.0171835795044899,-0.0015369837637990713,-0.01476749125868082,0.3035673201084137,-0.011279905214905739
1659093222672,-0.00010588782606646419,0.00033385379356332123,6.893429235788062e-05,-0.0003646070836111903,0.017865294590592384,-0.002272016601637006,-0.015338811092078686,0.24664609134197235,-0.059439655393362045
1659093222677,-0.00010782032768474892,0.0004286282928660512,6.17152254562825e-05,-0.00043889417429454625,0.019284311681985855,-0.002179670613259077,-0.015270974487066269,0.2548984885215759,-0.04207558557391167
1659093222682,-0.00011015753989340737,0.0005307953106239438,5.39519933226984e-05,-0.0005138180567882955,0.020730257034301758,-0.0021423371508717537,-0.015234844759106636,0.2611340880393982,-0.03304343670606613
1659093222687,-0.0001112068712245673,0.0006434116512537003,4.515971158980392e-05,-0.0003448802453931421,0.02272866852581501,-0.0019239656394347548,0.0043825809843838215,0.31239053606987,-0.0006268506404012442
1659093222692,-0.0001128894800785929,0.0007609702879562974,3.5111930628772825e-05,-0.0003228955320082605,0.024289928376674652,-0.001869924832135439,0.00440441956743598,0.3123106360435486,0.0054793814197182655
1659093222697,-0.00010277132241753861,0.0001553353649796918,4.9441587179899216e-05,-0.00017015812045428902,0.014496619813144207,-0.0034606526605784893,0.004223870113492012,0.26520469784736633,-0.09590043127536774
1659093222702,-0.0001035302848322317,0.00023033097386360168,3.112715421593748e-05,-0.00014839369396213442,0.01571498066186905,-0.003905404591932893,0.004224836360663176,0.260633260011673,-0.0943622812628746
1659093222707,-0.0001042160511133261,0.00030315585900098085,2.7963029424427077e-05,-0.00012748311564791948,0.016121400520205498,-0.002610195195302367,0.0042104865424335,0.2101798951625824,0.009656277485191822
1659093222712,-0.00010481197386980057,0.00038774963468313217,1.5966665159794502e-05,-0.00010637340892571956,0.017297161743044853,-0.0024840778205543756,0.004225546028465033,0.21667146682739258,0.013622029684484005
1659093222717,-0.00010530520376050845,0.00047810820979066193,5.270551355351927e-06,-8.512272324878722e-05,0.018468763679265976,-0.002305705798789859,0.004241893067955971,0.22030948102474213,0.01809568703174591
1659093222722,-0.00010566374839982018,0.000581228407099843,-4.972078841092298e-06,-5.9902948123635724e-05,0.02063591219484806,-0.0022278998512774706,0.004563459195196629,0.3024258017539978,0.011396768502891064
1659093222727,-0.00010592328908387572,0.000688198721036315,-1.5679837815696374e-05,-3.76166426576674e-05,0.022134963423013687,-0.002252381993457675,0.004534142091870308,0.3012084662914276,0.003564395010471344
1659093222732,-9.65283761615865e-05,0.0001778777368599549,9.85900842351839e-05,2.5144738174276426e-05,0.015102768316864967,-0.0011073106434196234,0.004268614575266838,0.28550174832344055,-0.03366320952773094
1659093222737,-9.915661939885467e-05,0.00025855167768895626,9.817213140195236e-05,-0.0002601098094601184,0.016703879460692406,-0.0006772617343813181,-0.015117143280804157,0.2964124083518982,0.003941240720450878
1659093222742,-0.00010064105299534276,0.0003469768271315843,9.483573376201093e-05,-0.0003355668159201741,0.018338007852435112,-0.0006570031400769949,-0.015114577487111092,0.3049020767211914,0.0039769369177520275
1659093222747,-0.00010251349158352241,0.00044496668851934373,9.283440886065364e-05,-0.0004107890708837658,0.020094165578484535,-0.0005206847563385963,-0.015093273483216763,0.3149922490119934,0.00906247179955244
1659093222752,-0.00010306105832569301,0.0005522158462554216,9.435727406525984e-05,-0.00024136477441061288,0.0219983272254467,-0.0001039672497427091,0.004487570840865374,0.3373940587043762,0.02879081666469574
1659093222757,-0.00010423803178127855,0.0006664510583505034,9.401850547874346e-05,-0.00021983349870424718,0.023731205612421036,-0.0001286714687012136,0.004432868678122759,0.34157711267471313,0.01351134106516838
1659093222762,-0.00010530559666221961,0.0007897121249698102,9.264149412047118e-05,-0.00019854234415106475,0.025511234998703003,-0.00024320895317941904,0.004392769653350115,0.3460906147956848,0.002159455791115761
1659093222767,-0.00010141822713194415,0.00016872529522515833,0.0001146601716754958,-0.00013952457811683416,0.01475541666150093,-0.0012828094186261296,0.0040925112552940845,0.30567431449890137,-0.09690351039171219
1659093222772,-0.0001020825729938224,0.0002467331651132554,0.0001084644318325445,-0.0001189581525977701,0.016321565955877304,-0.0016430022660642862,0.004113002214580774,0.30743226408958435,-0.09118346124887466
1659093222778,-0.00010261436545988545,0.0003341583942528814,9.813691576709971e-05,-9.840801794780418e-05,0.018002714961767197,-0.0021680325735360384,0.004105166997760534,0.31283459067344666,-0.09376353025436401
1659093222783,-0.00010304684838047251,0.00043125153752043843,9.287625289289281e-05,-7.885655941208825e-05,0.019734730944037437,-0.0015310688177123666,0.004022182431071997,0.315878301858902,-0.00021341536194086075
1659093222787,-0.00010336883860873058,0.0005347589030861855,8.473492925986648e-05,-5.822798266308382e-05,0.021155672147870064,-0.0014464324340224266,0.00404805364087224,0.29938673973083496,0.008713038638234138
1659093222792,-0.00010358991858083755,0.0006442216108553112,7.765794725855812e-05,-3.745051071746275e-05,0.022495079785585403,-0.0012970862444490194,0.0040700798854231834,0.2885894179344177,0.015956128016114235
1659093222797,-9.766170114744455e-05,7.007739623077214e-05,0.00010054199810838327,-1.0513536835787818e-05,0.013496837578713894,-2.9965558496769518e-06,0.003950700629502535,0.2969818413257599,0.011909736320376396
1659093222802,-9.764415153767914e-05,0.00013605270942207426,9.204655361827463e-05,9.77295985649107e-06,0.01446553785353899,-0.0008086439338512719,0.003962770104408264,0.2683652937412262,-0.03820410370826721
1659093222807,-9.752094774739817e-05,0.00021452485816553235,8.853185136104003e-05,3.045445555471815e-05,0.016053397208452225,-0.0009128493838943541,0.003988569602370262,0.2809223234653473,-0.03379453718662262
1659093222813,-9.730761667015031e-05,0.00030118011636659503,8.41694200062193e-05,5.0863898650277406e-05,0.017671113833785057,-0.0010367182549089193,0.004001749213784933,0.28959378600120544,-0.03197065368294716
1659093222817,-9.871365909930319e-05,0.0003979822213295847,8.198279101634398e-05,-0.00017268922238145024,0.019641561433672905,-0.0006922393222339451,-0.015479412861168385,0.32531312108039856,0.009092758409678936
1659093222822,-9.978444722946733e-05,0.000500252703204751,7.848932727938518e-05,-0.0002500680857338011,0.02126540057361126,-0.0005995098617859185,-0.015463119372725487,0.3250710666179657,0.01364253368228674
1659093222827,-0.00010125094559043646,0.0006107250228524208,7.5902120443061e-05,-0.0003272504254709929,0.022926241159439087,-0.000415728340158239,-0.015435831621289253,0.32736989855766296,0.02115040086209774
1659093222832,-8.384626562474295e-05,0.0001606997539056465,5.716802479582839e-05,-0.00028658818337135017,0.014645291492342949,-0.0013266014866530895,-0.014701852574944496,0.25018110871315,-0.036811407655477524
1659093222837,-8.547843026462942e-05,0.0002368396962992847,5.016438808524981e-05,-0.0003603691584430635,0.01590144634246826,-0.0015132736880332232,-0.01470566913485527,0.2508634924888611,-0.03713194653391838
1659093222843,-8.745776722207665e-05,0.0003193404118064791,4.2062700231326744e-05,-0.00043382341391406953,0.017162160947918892,-0.0016953963786363602,-0.014706326648592949,0.25137773156166077,-0.03685471788048744
1659093222848,-8.709503890713677e-05,0.0004160640819463879,3.744664354599081e-05,-0.00020378758199512959,0.019299278035759926,-0.0013776145642623305,0.004957353230565786,0.3082844316959381,-0.004440599121153355
1659093222853,-8.804722165223211e-05,0.0005150220240466297,2.7073328965343535e-05,-0.00017989416664931923,0.02072092518210411,-0.0016941176727414131,0.004903819877654314,0.30240511894226074,-0.01888033002614975
1659093222857,-8.888598677003756e-05,0.0006206276011653244,1.517775672255084e-05,-0.00015612483548466116,0.02210570126771927,-0.00201862258836627,0.0048698014579713345,0.29740166664123535,-0.02794722095131874
1659093222862,-8.963196160038933e-05,0.0007310399669222534,2.9290263228176627e-06,-0.00013545373803935945,0.023172881454229355,-0.002317998092621565,0.0045881858095526695,0.26842308044433594,-0.03718135878443718
1659093222867,-8.562340372009203e-05,0.00023756292648613453,5.8096797147300094e-05,-7.348288636421785e-05,0.01670660823583603,0.00029219090356491506,0.004808911122381687,0.3083924353122711,0.06410437822341919
1659093222872,-8.58926068758592e-05,0.0003250418812967837,5.955030064797029e-05,-4.9095524445874617e-05,0.01825782097876072,0.0005486762383952737,0.004800310358405113,0.3087741732597351,0.061580345034599304
1659093222877,-8.60317304614e-05,0.00041594519279897213,5.670356404152699e-05,-2.4314771508215927e-05,0.019313253462314606,0.0001829096581786871,0.004822175949811935,0.27613091468811035,0.019537385553121567
1659093222882,-8.607559720985591e-05,0.0005160502623766661,5.621644595521502e-05,-3.5234165807196405e-07,0.020704427734017372,0.00015941761375870556,0.004804212134331465,0.276601105928421,0.014509579166769981
1659093222887,-8.601778972661123e-05,0.0006223478703759611,5.6944329116959125e-05,2.360717007832136e-05,0.02204742282629013,0.00021671513968613,0.00480191595852375,0.2752513289451599,0.013989576138556004
1659093222892,-8.584780880482867e-05,0.0007327342755161226,5.860907549504191e-05,4.756305133923888e-05,0.02324219048023224,0.0003096001746598631,0.004802802111953497,0.26993057131767273,0.014665341936051846
1659093222897,-8.557536784792319e-05,0.0008556002867408097,5.967985634924844e-05,6.993840361246839e-05,0.025377972051501274,0.0002475035726092756,0.004698763135820627,0.33445999026298523,0.0038541494868695736
1659093222902,-0.0001108171054511331,0.0002377791388425976,0.00015092740068212152,-0.00033083849120885134,0.015482485294342041,0.001495234901085496,0.00408722460269928,0.2324705272912979,0.025542180985212326
1659093222907,-0.00011245662608416751,0.00031475082505494356,0.00015976191207300872,-0.0003104519855696708,0.016400635242462158,0.001699306070804596,0.004105213563889265,0.22391285002231598,0.028222505003213882
1659093222912,-0.00011397964408388361,0.00039571599336341023,0.00016872206469997764,-0.0002916698285844177,0.017255257815122604,0.001854111673310399,0.003997554071247578,0.21376588940620422,0.029148267582058907
1659093222917,-0.00011538030958035961,0.0004869887779932469,0.00017876681522466242,-0.00027122977189719677,0.01859220303595066,0.002046859823167324,0.004015214741230011,0.22872862219810486,0.03177192434668541
1659093222922,-0.00011668696242850274,0.0005849034641869366,0.00018932681996375322,-0.0002510696358513087,0.019923049956560135,0.002199178095906973,0.004018368199467659,0.23690132796764374,0.03148750588297844
1659093222927,-0.0001162119151558727,0.0006961895851418376,0.00019651047477964312,9.035758921527304e-06,0.022186744958162308,0.001753680408000946,0.02321365475654602,0.3157304525375366,-0.016819993034005165
1659093222932,-7.195286161731929e-05,0.00021306908456608653,9.567666711518541e-05,0.0007692089420743287,0.015902036800980568,-0.0003152783901896328,0.024257471784949303,0.2738180160522461,-0.007964974269270897
1659093222937,-6.780240073567256e-05,0.00029601959977298975,9.399829286849126e-05,0.0008904995047487319,0.0172731876373291,-0.00035561551339924335,0.02425689809024334,0.27391231060028076,-0.007989546284079552
1659093222942,-6.574569852091372e-05,0.00038518841029144824,9.213506564265117e-05,0.0007105530821718276,0.018574491143226624,-0.00039578514406457543,0.004777263384312391,0.26941484212875366,-0.008295110426843166
1659093222947,-6.216028850758448e-05,0.0004804390191566199,8.749158587306738e-05,0.0007333023240789771,0.019831545650959015,-0.0006699415389448404,0.004731714725494385,0.2649199664592743,-0.01991097256541252
1659093222952,-5.8451703807804734e-05,0.0005805269465781748,8.199195144698024e-05,0.0007562288665212691,0.02097863145172596,-0.0009124485077336431,0.004707273095846176,0.2578394114971161,-0.02562309242784977
1659093222957,-5.6327386118937284e-05,0.0006832701037637889,7.546511187683791e-05,0.0005363500094972551,0.021809687837958336,-0.0011008399305865169,-0.014728442765772343,0.23283858597278595,-0.023858139291405678
1659093222962,-5.384317410062067e-05,0.0007946582045406103,6.913915422046557e-05,0.0004632358904927969,0.023149456828832626,-0.001058519585058093,-0.01466276403516531,0.2500257194042206,-0.008039237931370735
1659093222967,-6.604118243558332e-05,0.00017133509390987456,0.0001240872370544821,-4.821982201974606e-06,0.014795972965657711,0.0007140174857340753,-0.015100426971912384,0.27218884229660034,0.007217377424240112
1659093222972,-6.382809806382284e-05,0.000256416795309633,0.00013414245040621608,0.00020822620717808604,0.017093464732170105,0.001516801887191832,0.004197974223643541,0.3384685516357422,0.06130678579211235
1659093222977,-6.279562512645498e-05,0.0003425928298383951,0.00013983744429424405,0.00022748905757907778,0.018493257462978363,0.0015985629288479686,0.004152980633080006,0.32585418224334717,0.0515718013048172
1659093222982,-6.164246588014066e-05,0.00043510255636647344,0.0001463381777284667,0.00024716611369512975,0.01984528638422489,0.001706545241177082,0.004126714076846838,0.31603407859802246,0.04623611643910408
1659093222987,-6.036807462805882e-05,0.0005337842740118504,0.00015430577332153916,0.000267292169155553,0.021161090582609177,0.0018694093450903893,0.0041142236441373825,0.30808085203170776,0.0441708117723465
1659093222992,-5.9012643760070205e-05,0.0006433173548430204,0.0001577746297698468,0.00028500877670012414,0.02298014424741268,0.001412028563208878,0.003942255396395922,0.3359631896018982,0.0011799181811511517
1659093222997,-6.314774509519339e-05,0.00026450271252542734,6.249649595702067e-05,0.00021362547704484314,0.016169220209121704,-0.00031657610088586807,0.004146695137023926,0.25639376044273376,0.0020348019897937775
1659093223002,-6.204006058396772e-05,0.0003479593724478036,6.064590343157761e-05,0.0002340172795811668,0.017392611131072044,-0.0003407837066333741,0.004140134435147047,0.25407713651657104,0.0006243142997846007
1659093223007,-6.087200017645955e-05,0.0004353129188530147,6.115144060458988e-05,0.0002494728541933,0.018382996320724487,-0.00010533600288908929,0.0038274936378002167,0.2379373461008072,0.015112603083252907
1659093223012,-5.9581427194643766e-05,0.0005300679476931691,6.126442167442292e-05,0.00026867681299336255,0.01956087537109852,1.2025731848552823e-05,0.003835712792351842,0.2373119443655014,0.017337756231427193
1659093223017,-5.820081423735246e-05,0.0006297237705439329,6.319658132269979e-05,0.00028809678042307496,0.020658332854509354,0.00022622448159381747,0.003854926209896803,0.2335359901189804,0.02269778959453106
1659093223022,-5.670467726304196e-05,0.0007360944873653352,6.891282828291878e-05,0.00031036327709443867,0.021984798833727837,0.0007464064983651042,0.004085640422999859,0.2515476942062378,0.0472879558801651
1659093223027,-5.5117339798016474e-05,0.0008490426116622984,7.34457207727246e-05,0.00033019017428159714,0.023333128541707993,0.0008657061844132841,0.004046722315251827,0.2599841058254242,0.036319322884082794
1659093223032,-7.785936759319156e-05,0.0002671563415788114,0.00011003726103808731,-4.898206316283904e-05,0.01612779311835766,0.000577643746510148,0.003769802860915661,0.2993542551994324,-0.0068781110458076
1659093223037,-7.818692392902449e-05,0.00035482237581163645,0.00010432083217892796,-3.6780893424293026e-05,0.01794431358575821,-0.0002785451943054795,0.0034242444671690464,0.31878066062927246,-0.05674579739570618
1659093223042,-7.836264558136463e-05,0.00044776787399314344,0.00010520438809180632,-1.9046376110054553e-05,0.01945372298359871,-0.00022846463252790272,0.0034894347190856934,0.3143240511417389,-0.03910587355494499
1659093223047,-7.842550257919356e-05,0.0005493905046023428,0.00010574946645647287,-1.1373158486094326e-06,0.021062280982732773,-0.00023575768864247948,0.0035191711504012346,0.3158707618713379,-0.031240008771419525
1659093223052,-7.836718577891588e-05,0.0006581484340131283,0.00011050861212424934,1.995732236537151e-05,0.022417085245251656,0.00038273812970146537,0.0037844658363610506,0.2912338972091675,0.024963803589344025
1659093223057,-7.821751933079213e-05,0.0007739736465737224,0.00011274308781139553,3.877737981383689e-05,0.023704590275883675,0.0004919514758512378,0.003773492993786931,0.2753995358943939,0.023502523079514503
1659093223062,-7.796540012350306e-05,0.0008951730560511351,0.00011579660349525511,5.797225458081812e-05,0.0248755794018507,0.0006866615731269121,0.0037878260482102633,0.26222577691078186,0.028429627418518066
1659093223067,-8.2961589214392e-05,0.000183140960871242,0.00010522434604354203,-5.211515963310376e-05,0.013630703091621399,0.00022389815421774983,0.0038673358503729105,0.1962902992963791,0.022311225533485413
1659093223072,-8.313173748319969e-05,0.0002540979185141623,0.00010426648077555001,-3.281436875113286e-05,0.014640284702181816,0.00013568549184128642,0.0038347544614225626,0.1975020170211792,0.013596950098872185
1659093223077,-8.322409121319652e-05,0.00032886065309867263,0.0001027789621730335,-1.383785274811089e-05,0.01556591410189867,3.9896753150969744e-05,0.003812381299212575,0.19530239701271057,0.007734095212072134
1659093223082,-8.321670611621812e-05,0.0004090978763997555,9.94344663922675e-05,4.928081125399331e-06,0.016540370881557465,-0.0001393292041029781,0.0037874863483011723,0.19523939490318298,0.0011168369092047215
1659093223087,-8.308400720125064e-05,0.0005044511053711176,0.00010148900037165731,2.765954559436068e-05,0.01863059401512146,0.000441443087765947,0.004041227977722883,0.2671836018562317,0.047941528260707855
1659093223092,-8.288697426905856e-05,0.0006031339871697128,0.00010020146146416664,4.71793428005185e-05,0.020101305097341537,0.0004267814802005887,0.004006433300673962,0.2721577286720276,0.038533758372068405
1659093223097,-7.70332699175924e-05,0.00023998551478143781,7.902968354756013e-05,7.555990305263549e-05,0.016435330733656883,-0.0009894715622067451,0.003955150954425335,0.2987239956855774,-0.03824203461408615
1659093223102,-7.658254617126659e-05,0.0003248299763072282,8.12862126622349e-05,9.83864301815629e-05,0.01780521869659424,-0.00039279620978049934,0.0041459049098193645,0.290403813123703,0.008826090022921562
1659093223107,-7.606452709296718e-05,0.00041670797509141266,7.814176933607087e-05,0.00011823915701825172,0.019177371636033058,-0.0004793293192051351,0.0041153389029204845,0.2860965132713318,0.001798979938030243
1659093223112,-7.54637731006369e-05,0.0005147705087438226,7.299643039004877e-05,0.00013742437295150012,0.020493490621447563,-0.0006965846987441182,0.004074318800121546,0.28124722838401794,-0.007790327072143555
1659093223117,-7.478189218090847e-05,0.0006162888603284955,6.128875247668475e-05,0.0001540660741738975,0.021402545273303986,-0.001658420660533011,0.00384516385383904,0.24733738601207733,-0.07183539867401123
1659093223122,-7.397814624710009e-05,0.0007262977305799723,5.200003943173215e-05,0.00017349568952340633,0.022751335054636,-0.0019155337940901518,0.00388387986458838,0.25774264335632324,-0.062348295003175735
1659093223127,-7.307423948077485e-05,0.0008437467622570693,4.2123028833884746e-05,0.00019326878827996552,0.02417747862637043,-0.002092480892315507,0.003918628674000502,0.26647454500198364,-0.05379972606897354
1659093223132,-4.193687709630467e-05,0.00027148291701450944,8.510503539582714e-05,0.0005603457684628665,0.016846913844347,0.0009085822384804487,0.004691971465945244,0.3133941888809204,0.035729799419641495
1659093223137,-3.920206654584035e-05,0.00035820662742480636,8.728508692001924e-05,0.0005807997076772153,0.018256595358252525,0.0007615257054567337,0.004616022575646639,0.30501633882522583,0.018244227394461632
1659093223142,-3.634622771642171e-05,0.00045074301306158304,8.772082946961746e-05,0.0006012495141476393,0.01955919899046421,0.0005333555163815618,0.0045553334057331085,0.29563581943511963,0.004725285805761814
1659093223147,-3.342040508869104e-05,0.0005429869634099305,7.952140003908426e-05,0.0006156882736831903,0.019943948835134506,-0.0007035434246063232,0.004026585724204779,0.21819226443767548,-0.08234335482120514
1659093223152,-3.0342487661982886e-05,0.0006453777314163744,7.496725447708741e-05,0.0006358639220707119,0.02115643210709095,-0.0009448717464692891,0.004089736845344305,0.22952987253665924,-0.06653134524822235
1659093223157,-2.7140411475556903e-05,0.0007543870597146451,6.999012111919001e-05,0.0006565066869370639,0.0224028080701828,-0.0011390486033633351,0.004124767147004604,0.2358282506465912,-0.05775797367095947
1659093223162,-2.3796184905222617e-05,0.0008734276634640992,7.167168951127678e-05,0.0006810657796449959,0.02416303940117359,-0.0002788157435134053,0.004442914389073849,0.2802124321460724,0.030757106840610504
1659093223167,-6.322538683889434e-05,0.0002603408647701144,8.907446317607537e-05,8.505777805112302e-05,0.014910843223333359,-0.00048170285299420357,0.003591902321204543,0.23113736510276794,-0.0327831394970417
1659093223172,-6.273514009080827e-05,0.0003385988820809871,8.609654469182715e-05,0.00010318605927750468,0.016151858493685722,-0.0006607956602238119,0.0035878997296094894,0.23493950068950653,-0.03345029801130295
1659093223177,-6.2171122408472e-05,0.0004236577660776675,8.254830026999116e-05,0.0001211465714732185,0.017436575144529343,-0.0008137124823406339,0.0035881989169865847,0.23894639313220978,-0.03292704001069069
1659093223182,-6.149699765956029e-05,0.000524704868439585,9.151018457487226e-05,0.00014323978393804282,0.019643157720565796,0.0003213243617210537,0.0038411144632846117,0.29388803243637085,0.04063934460282326
1659093223187,-6.076187128201127e-05,0.0006230308208614588,9.214971214532852e-05,0.00016135214536916465,0.020748460665345192,0.000372937269276008,0.0037999097257852554,0.2745417654514313,0.03257768973708153
1659093223192,-5.991106081637554e-05,0.0007255788659676909,9.38140947255306e-05,0.00017993092478718609,0.021743979305028915,0.00048634741688147187,0.0037840718869119883,0.2587212920188904,0.030502120032906532
1659093223197,-5.767752736574039e-05,0.00017220705922227353,9.180790948448703e-05,0.0001947930722963065,0.014262815937399864,0.0003168320981785655,0.004034463316202164,0.3163999319076538,0.00790951494127512
1659093223202,-5.66483722650446e-05,0.00024854761431925,9.335370850749314e-05,0.00021487544290721416,0.01594657450914383,0.0003436052065808326,0.0040271286852657795,0.32084226608276367,0.007354361470788717
1659093223207,-5.551849608309567e-05,0.0003336653171572834,9.486882481724024e-05,0.00023490097373723984,0.017654232680797577,0.00035826367093250155,0.004019748419523239,0.3245409429073334,0.006563961040228605
1659093223213,-5.430922828963958e-05,0.0004264095623511821,8.809605787973851e-05,0.0002522565773688257,0.019261911511421204,-0.0004951860755681992,0.0038485522381961346,0.32084229588508606,-0.04680754989385605
1659093223217,-5.298665928421542e-05,0.0005250134272500873,8.631680975668132e-05,0.00027204351499676704,0.02067829668521881,-0.0005890814354643226,0.0038742143660783768,0.31055745482444763,-0.03913572430610657
1659093223222,-5.157211853656918e-05,0.0006297786021605134,8.373396849492565e-05,0.00029162218561396003,0.022017059847712517,-0.0007116143824532628,0.0038826295640319586,0.301369845867157,-0.035993531346321106
1659093223227,-5.006874198443256e-05,0.0007317237905226648,8.237323345383629e-05,0.0003098757879342884,0.022089984267950058,-0.000593128614127636,0.003780502825975418,0.19836848974227905,-0.015598795376718044
1659093223232,-5.888397208764218e-05,0.00018065077892970294,6.672034214716405e-05,0.00014664046466350555,0.01388921495527029,-0.0010653254576027393,0.003589577041566372,0.26357898116111755,-0.030984707176685333
1659093223237,-5.810624497826211e-05,0.0002529163903091103,6.0947160818614066e-05,0.0001644960866542533,0.01517894584685564,-0.0012237578630447388,0.0035859534982591867,0.2626921832561493,-0.031096821650862694
1659093223242,-5.7232235121773556e-05,0.0003332640044391155,5.5574531870661303e-05,0.00018376826483290642,0.016637200489640236,-0.0012414539232850075,0.003680626628920436,0.27252328395843506,-0.02177029475569725
1659093223248,-5.628557482850738e-05,0.0004201101546641439,4.7618250391678885e-05,0.00020155467791482806,0.018023433163762093,-0.0014715124852955341,0.0036590564996004105,0.2736419439315796,-0.02738356776535511
1659093223252,-5.526460154214874e-05,0.0005142803420312703,3.656493572634645e-05,0.00021873296645935625,0.019435547292232513,-0.0018414687365293503,0.0036254022270441055,0.27529242634773254,-0.03614801913499832
1659093223257,-5.246684668236412e-05,0.0006206575781106949,2.1927935449639335e-05,0.0004777746507897973,0.021628795191645622,-0.002372800139710307,0.02296517789363861,0.34035301208496094,-0.05163571983575821
1659093223262,-4.9804337322711945e-05,0.0007328462088480592,8.78530499903718e-06,0.0005928944447077811,0.023361744359135628,-0.0025257589295506477,0.023008055984973907,0.34360602498054504,-0.040737979114055634
1659093223267,3.597004251787439e-05,0.00021764884877484292,-6.278420914895833e-05,0.0018178945174440742,0.01536188367754221,-0.0017767712706699967,0.023927370086312294,0.30309444665908813,0.0055879149585962296
1659093223273,4.5284868974704295e-05,0.0002977373660542071,-7.192381599452347e-05,0.0019361806334927678,0.01680567115545273,-0.001814214512705803,0.023911766707897186,0.3000481128692627,0.0026987683959305286
1659093223278,5.1776620239252225e-05,0.00037844059988856316,-8.933823119150475e-05,0.0017170702340081334,0.017605388537049294,-0.0026405646931380033,0.004405815154314041,0.26129841804504395,-0.044299349188804626
1659093223283,6.038466017344035e-05,0.0004719615972135216,-0.00010162065154872835,0.001739112427458167,0.0190968569368124,-0.0027450122870504856,0.0044302623718976974,0.27064380049705505,-0.038440458476543427
1659093223287,6.913692777743563e-05,0.0005732177523896098,-0.0001154829005827196,0.0017613655654713511,0.02061944082379341,-0.002913763513788581,0.00443535391241312,0.277474582195282,-0.03750289976596832
1659093223292,8.1409074482508e-05,0.0006841229624114931,-0.00012782413978129625,0.002266925061121583,0.022449679672718048,-0.0025874939747154713,0.04309505969285965,0.3065306544303894,0.007935441099107265
1659093223297,3.867395571433008e-05,0.0005485156434588134,-6.194171874085441e-05,0.001858908566646278,0.02011323906481266,-0.000751229643356055,0.04220902919769287,0.25702738761901855,0.02780178003013134
1659093223302,4.8545742174610496e-05,0.0006515388959087431,-6.454224785557017e-05,0.0020710050594061613,0.02133052796125412,-0.0005313195870257914,0.04222314804792404,0.25440359115600586,0.031002342700958252
1659093223307,5.364770913729444e-05,0.0007582206162624061,-6.718841177644208e-05,0.0016588321886956692,0.02228829264640808,-0.00043208253919146955,0.0033315245527774096,0.2363022118806839,0.026342738419771194
1659093223312,6.198418122949079e-05,0.0008735837182030082,-6.894713442306966e-05,0.00167554069776088,0.023566406220197678,-0.00029345371876843274,0.00333397020585835,0.24149177968502045,0.026711078360676765
1659093223317,7.040437776595354e-05,0.0009957486763596535,-7.019955228315666e-05,0.0016922263894230127,0.02488238736987114,-0.00016941731155384332,0.0033332931343466043,0.24610155820846558,0.026310110464692116
1659093223322,7.889499102020636e-05,0.0011258573504164815,-7.506583642680198e-05,0.0017053656047210097,0.026328446343541145,-0.00047991081373766065,0.003059887792915106,0.2568577527999878,-0.0018812362104654312
1659093223327,8.747847459744662e-05,0.001260808203369379,-7.768228533677757e-05,0.0017214639810845256,0.02749534323811531,-0.0003388678887858987,0.003112524515017867,0.2459493726491928,0.012162656523287296
1659093223332,-0.00043846608605235815,0.00023834005696699023,-5.254649659036659e-05,-0.005406123585999012,0.012505232356488705,-0.0013695950619876385,-0.0026292698457837105,0.23018896579742432,-0.0219375342130661
1659093223337,-0.00046287471195682883,0.0003070403472520411,-5.562168007600121e-05,-0.00511695072054863,0.014027124270796776,-0.0010193904163315892,0.017220500856637955,0.254559725522995,0.008231785148382187
1659093223342,-0.00048824356053955853,0.0003783866122830659,-6.125045183580369e-05,-0.005030999891459942,0.015106234699487686,-0.0010417636949568987,0.01721273921430111,0.24504001438617706,0.005094388499855995
1659093223347,-0.0005131655489094555,0.00045465954462997615,-6.887732160976157e-05,-0.00494545279070735,0.016150198876857758,-0.001215528231114149,0.017185073345899582,0.2379046082496643,-0.002800288610160351
1659093223352,-0.0005427485448308289,0.0005389517755247653,-8.396882185479626e-05,-0.005585830193012953,0.017545023933053017,-0.002294457284733653,-0.0409015528857708,0.2593143582344055,-0.07901467382907867
1659093223357,-0.0005711777484975755,0.0006297489162534475,-9.664581011747941e-05,-0.0057898820377886295,0.01889714226126671,-0.002600299660116434,-0.040867965668439865,0.2648022472858429,-0.07026462256908417
1659093223362,-0.00038469061837531626,0.0002837711072061211,0.00014028378063812852,-0.003073106985539198,0.01599419303238392,0.0009525491623207927,-0.037980757653713226,0.32093164324760437,-0.03228641301393509
1659093223367,-0.00040054405690170825,0.00036680212360806763,0.000144525634823367,-0.0032631626818329096,0.01750936359167099,0.0007797731086611748,-0.037980105727910995,0.3173890709877014,-0.03274019807577133
1659093223372,-0.00040715080103836954,0.0004431204579304904,0.000153332031914033,-0.002448686398565769,0.017625192180275917,0.0011382465017959476,0.01990271918475628,0.23402416706085205,-0.003053548512980342
1659093223377,-0.00041914204484783113,0.0005335196619853377,0.0001589512248756364,-0.0023491596803069115,0.01873270608484745,0.0011194664984941483,0.019901491701602936,0.23074834048748016,-0.003238363191485405
1659093223382,-0.0004306240880396217,0.0006294124177657068,0.00016522603982593864,-0.0022493447177112103,0.019832303747534752,0.0011568786576390266,0.019909890368580818,0.22848093509674072,-0.0010349645745009184
1659093223387,-0.0004500849172472954,0.0007397541194222867,0.00017455060151405632,-0.003361196955665946,0.02207779698073864,0.0015296920901164412,-0.07703545689582825,0.31342628598213196,0.024226151406764984
1659093223392,-0.0004678219847846776,0.0008541119750589132,0.00018276541959494352,-0.003746498841792345,0.023627623915672302,0.0015190846752375364,-0.07708355039358139,0.3117826581001282,0.011803913861513138
1659093223397,0.0001898034824989736,-0.00030975649133324623,0.00044597641681320965,0.004216267727315426,0.00854988768696785,0.004655316937714815,-0.07036547362804413,0.3308561444282532,-0.011454110965132713
1659093223402,0.00023310433607548475,-0.0002703735081013292,0.0004669130139518529,0.0063379257917404175,0.009401542134582996,0.00442483089864254,0.08354932069778442,0.2809198796749115,-0.019244343042373657
1659093223407,0.000265865441178903,-0.00021904286404605955,0.0004908455302938819,0.006756838411092758,0.01089201308786869,0.00454687001183629,0.08359970152378082,0.2855905294418335,-0.007380928844213486
1659093223412,0.00030071515357121825,-0.00015918069402687252,0.0005154111422598362,0.007175749633461237,0.012475229799747467,0.004672565963119268,0.08363206684589386,0.2922307848930359,-0.00043028220534324646
1659093223417,0.00032921149977482855,-8.86627021827735e-05,0.0005351028521545231,0.006390540860593319,0.014433013275265694,0.004080050624907017,-0.012652827426791191,0.32564014196395874,-0.050574082881212234
1659093223422,0.00036100816214457154,-1.2394432815199252e-05,0.0005548828630708158,0.006327166687697172,0.015991685912013054,0.003799715545028448,-0.012666025198996067,0.3192140460014343,-0.053107909858226776
1659093223427,0.0003924798802472651,7.137978536775336e-05,0.0005729866097681224,0.0062636216171085835,0.017549732699990273,0.003476650919765234,-0.012681559659540653,0.3168378472328186,-0.056747112423181534
1659093223432,0.0007000446785241365,-0.0004593365010805428,0.0005817475612275302,0.00942946132272482,0.009152463637292385,0.004181020427495241,-0.01073929388076067,0.2650982141494751,0.05945436656475067
1659093223437,0.0007471644203178585,-0.0004119077348150313,0.0006051355740055442,0.009377621114253998,0.01031883992254734,0.004646986722946167,-0.010714712552726269,0.25731104612350464,0.06772642582654953
1659093223442,0.0007939825300127268,-0.00035957939689978957,0.0006301238900050521,0.009324835613369942,0.011418549343943596,0.005059647839516401,-0.010711586102843285,0.2500079572200775,0.07065945118665695
1659093223447,0.000842204550281167,-0.00030249138944782317,0.0006448568892665207,0.009518792852759361,0.01249711960554123,0.003832586109638214,0.009113256819546223,0.24748139083385468,-0.05342668667435646
1659093223452,0.00088988192146644,-0.00023745445651002228,0.0006631379364989698,0.0095644760876894,0.013926207087934017,0.0036471732892096043,0.00915698055177927,0.26642441749572754,-0.04537859186530113
1659093223457,0.0009378109243698418,-0.000163954624440521,0.0006810103077441454,0.009610599838197231,0.015512524172663689,0.0035112553741782904,0.009191286750137806,0.28325867652893066,-0.03936555236577988
1659093223462,0.0003376342065166682,-2.6231968149659224e-05,0.00045095750829204917,0.0010728416964411736,0.01746000163257122,-0.0015698624774813652,0.0024804368149489164,0.24410857260227203,-0.09917055070400238
1659093223467,0.0003432805242482573,5.2101851906627417e-05,0.00046549070975743234,0.0010870116529986262,0.01768113486468792,0.00018060512957163155,0.0023749573156237602,0.19363833963871002,0.026909181848168373
1659093223472,0.00034899552701972425,0.00014506216393783689,0.0004651114286389202,0.0011011589085683227,0.018953846767544746,0.00010031857527792454,0.0023258861619979143,0.21115940809249878,0.014631297439336777
1659093223477,0.00035471864975988865,0.00024560143356211483,0.0004641145933419466,0.001114347716793418,0.02031617984175682,5.713256541639566e-06,0.0022957976907491684,0.2247932255268097,0.007148332428187132
1659093223482,0.0003637108893599361,0.00036053051007911563,0.0004643249558284879,0.0016072106081992388,0.022756319493055344,2.006698377954308e-05,0.04078371450304985,0.3195204734802246,0.0033585908822715282
1659093223487,0.00037217899807728827,0.0004780508461408317,0.00046411011135205626,0.0018094819970428944,0.02422236278653145,-0.00015145482029765844,0.040714118629693985,0.30788347125053406,-0.013302026316523552
1659093223492,0.000381642283173278,0.0006024410831741989,0.0004617570375557989,0.0020110777113586664,0.025654491037130356,-0.00047849331167526543,0.04064858332276344,0.3012845516204834,-0.029289918020367622
1659093223497,-0.00021139401360414922,0.00022697610256727785,-3.06033507513348e-05,-0.00471316184848547,0.018947890028357506,-0.004567919764667749,0.036266736686229706,0.21578751504421234,0.022249950096011162
1659093223502,-0.00023458554642274976,0.0003235157346352935,-5.651089668390341e-05,-0.004533517174422741,0.019982432946562767,-0.004617250058799982,0.036250513046979904,0.21469485759735107,0.018362175673246384
1659093223507,-0.0002568565832916647,0.000425659614847973,-8.212118700612336e-05,-0.004353507421910763,0.02103695645928383,-0.0046435147523880005,0.03623982518911362,0.21428680419921875,0.015814710408449173
1659093223512,-0.00030423374846577644,0.000551496515981853,-6.896354898344725e-05,-0.005999848246574402,0.023386331275105476,-0.001969678793102503,-0.041237182915210724,0.26896291971206665,0.12741880118846893
1659093223517,-0.0003347699239384383,0.0006662269588559866,-8.232583058997989e-05,-0.006207144819200039,0.0244212094694376,-0.0016173068434000015,-0.04127063602209091,0.25884947180747986,0.11813533306121826
1659093223522,-0.0003663188253995031,0.000784330302849412,-8.970190538093448e-05,-0.0064135100692510605,0.025354888290166855,-0.0010648015886545181,-0.04127214476466179,0.24873463809490204,0.11706477403640747
1659093223527,-0.00039375416235998273,0.0009014437673613429,-0.00010468532127561048,-0.005888270679861307,0.025618083775043488,-0.0023132199421525,0.017211994156241417,0.19162456691265106,-0.03582495450973511
1659093223532,-0.0007343639153987169,-0.00030798904481343925,-0.0005383249372243881,-0.009608150459825993,0.010174955241382122,-0.009519755840301514,0.01508257444947958,0.26629942655563354,-0.037764474749565125
1659093223537,-0.0007820725440979004,-0.0002548628835938871,-0.0005850741290487349,-0.009530633687973022,0.011406264267861843,-0.009563734754920006,0.015103669837117195,0.2622857391834259,-0.031782060861587524
1659093223542,-0.0008370397845283151,-0.0001891134597826749,-0.000644598389044404,-0.01033036969602108,0.013359056785702705,-0.011071021668612957,-0.04308111593127251,0.3059946894645691,-0.12422431260347366
1659093223548,-0.0008892221958376467,-0.00011829763388959691,-0.0007005459628999233,-0.010545417666435242,0.01490690279752016,-0.011611408554017544,-0.043067723512649536,0.3067898452281952,-0.12068036198616028
1659093223552,-0.0009424753952771425,-4.0471426473231986e-05,-0.0007601922261528671,-0.010760711506009102,0.01640496961772442,-0.012220923788845539,-0.043068189173936844,0.30551785230636597,-0.12090332806110382
1659093223557,-0.0009968074737116694,4.28438579547219e-05,-0.0008230567327700555,-0.010975971817970276,0.017784737050533295,-0.012840037234127522,-0.043068479746580124,0.3010297417640686,-0.12134737521409988
1659093223562,-0.0017072852933779359,3.3441465348005295e-05,-0.0015708860009908676,-0.01808835007250309,0.01482389960438013,-0.01721041090786457,-0.008658616803586483,0.16713394224643707,0.04631585627794266
1659093223567,-0.0017978813266381621,0.0001096783671528101,-0.0016563069075345993,-0.018132247030735016,0.015556658618152142,-0.017032727599143982,-0.008666456677019596,0.16123658418655396,0.04318416118621826
1659093223573,-0.001888671307824552,0.00018901753355748951,-0.0017411371227353811,-0.018176062032580376,0.016270160675048828,-0.01686743088066578,-0.008672261610627174,0.15714535117149353,0.04092590510845184
1659093223577,-0.001979623455554247,0.00029728771187365055,-0.001843451987951994,-0.01821221224963665,0.019620006904006004,-0.018553948029875755,-0.008218700997531414,0.3110215961933136,-0.07120370119810104
1659093223583,-0.0020707929506897926,0.00039959067362360656,-0.0019363287137821317,-0.018253345042467117,0.021202970296144485,-0.018848193809390068,-0.00820792093873024,0.3124812841415405,-0.06802719831466675
1659093223586,-0.0021621694322675467,0.0005099275731481612,-0.0020310634281486273,-0.018294375389814377,0.022799383848905563,-0.019160140305757523,-0.008204772137105465,0.31391027569770813,-0.0668516606092453
1659093223592,-0.0022520676720887423,0.0006244181422516704,-0.0021203437354415655,-0.018095795065164566,0.023910798132419586,-0.018427791073918343,0.010964985005557537,0.2782026529312134,0.018893662840127945
1659093223597,-0.0025687282904982567,0.000548866402823478,-0.0025088456459343433,-0.02010139636695385,0.02413829043507576,-0.0209672711789608,0.009937607683241367,0.26697373390197754,0.014781485311686993
1659093223602,-0.0026691171806305647,0.0006730013992637396,-0.0026134857907891273,-0.02005179598927498,0.025487050414085388,-0.02089185267686844,0.009936444461345673,0.2675716280937195,0.014846522361040115
1659093223607,-0.0027719365898519754,0.0008073160424828529,-0.0027280282229185104,-0.020301613956689835,0.02721279300749302,-0.02195420116186142,-0.009214135818183422,0.29213419556617737,-0.05788906291127205
1659093223612,-0.0028735606465488672,0.0009462813031859696,-0.002838622312992811,-0.02034766413271427,0.028601543977856636,-0.022254861891269684,-0.009212448261678219,0.28842291235923767,-0.05847848951816559
1659093223617,-0.0029754224233329296,0.0010913506848737597,-0.002949583576992154,-0.020393433049321175,0.029926322400569916,-0.022467918694019318,-0.009195040911436081,0.2836306095123291,-0.05523844063282013
1659093223622,-0.0030775065533816814,0.0012390973279252648,-0.0030527536291629076,-0.020441556349396706,0.030748028308153152,-0.02145056240260601,-0.00938159879297018,0.24270100891590118,0.044096436351537704
1659093223627,-0.0031798183917999268,0.001395537401549518,-0.0031593863386660814,-0.020488692447543144,0.03208369016647339,-0.021244017407298088,-0.009398193098604679,0.25445008277893066,0.04275469109416008
1659093223632,-0.002070195507258177,0.0008842925308272243,-0.0021284883841872215,-0.009248962625861168,0.027171321213245392,-0.011558066122233868,-0.0017764384392648935,0.26657477021217346,0.019329968839883804
1659093223637,-0.002116268267855048,0.0010285434545949101,-0.002184191020205617,-0.00925730261951685,0.029021285474300385,-0.011313272640109062,-0.001870279316790402,0.3013137876987457,0.02969904989004135
1659093223642,-0.0021623955108225346,0.001176758436486125,-0.0022419781889766455,-0.009265582077205181,0.03045765869319439,-0.011338099837303162,-0.0018991034012287855,0.2980022430419922,0.021521640941500664
1659093223647,-0.002208632417023182,0.0013327357592061162,-0.002299860818311572,-0.009274445474147797,0.03194449469447136,-0.011350790038704872,-0.00191605428699404,0.29787924885749817,0.016934648156166077
1659093223652,-0.0022550132125616074,0.0014956454979255795,-0.002356330631300807,-0.009283965453505516,0.03339410573244095,-0.01126650720834732,-0.0019154928158968687,0.29658645391464233,0.016902662813663483
1659093223657,-0.002301541855558753,0.0016599090304225683,-0.0024209811817854643,-0.009295987896621227,0.03430568426847458,-0.012169703841209412,-0.0020441333763301373,0.2648404538631439,-0.04900554195046425
1659093223662,-0.0010213858913630247,0.0006017241976223886,-0.0013640389079228044,0.0023786770179867744,0.021874064579606056,-0.002662156941369176,0.0055643110536038876,0.22675135731697083,-0.0023559913970530033
1659093223667,-0.001009519211947918,0.0007124869152903557,-0.0013779157306998968,0.00240553030744195,0.0228829775005579,-0.002715913811698556,0.005560173653066158,0.2219591587781906,-0.003951130900532007
1659093223672,-0.0009976978180930018,0.0008297828608192503,-0.0013873632997274399,0.002423573285341263,0.02404330112040043,-0.002298459643498063,0.005080442409962416,0.22637052834033966,0.021475380286574364
1659093223677,-0.0009857455734163523,0.0009525775094516575,-0.0014007529243826866,0.0024461536668241024,0.025160962715744972,-0.0023995100054889917,0.005035059992223978,0.22567670047283173,0.010275996290147305
1659093223682,-0.0009737765649333596,0.0010815785499289632,-0.0014168856432661414,0.00246732821688056,0.02632763423025608,-0.0026859992649406195,0.004978647921234369,0.22735314071178436,-0.004041654989123344
1659093223687,-0.0009616750758141279,0.0012240390060469508,-0.0014441516250371933,0.0024916238617151976,0.028533494099974632,-0.00426541967317462,0.005191111005842686,0.30937904119491577,-0.11255870014429092
1659093223692,-0.0009492887184023857,0.001370576093904674,-0.0014670551754534245,0.002517176093533635,0.03008602187037468,-0.0046408637426793575,0.005258214194327593,0.30989933013916016,-0.09521345049142838
1659093223697,-0.0006216906476765871,0.0004825090290978551,-0.0005776172620244324,0.003912332467734814,0.02177625335752964,0.0050752535462379456,0.006113516166806221,0.293291300535202,0.03803354874253273
1659093223702,-0.0005993674276396632,0.0005912415217608213,-0.0005470179603435099,0.00423852214589715,0.022801723331212997,0.005776727106422186,0.024976104497909546,0.2642475664615631,0.07015262544155121
1659093223707,-0.0005778358899988234,0.0007072025910019875,-0.0005166255286894739,0.004363762680441141,0.02398587204515934,0.006188252475112677,0.024984637275338173,0.25705358386039734,0.07332594692707062
1659093223712,-0.0005556907854042947,0.0008287966484203935,-0.0004840541514568031,0.004488942679017782,0.025147538632154465,0.006611896213144064,0.024991124868392944,0.2519303858280182,0.07569177448749542
1659093223717,-0.000534593069460243,0.0009543666383251548,-0.0004582400433719158,0.004376271739602089,0.026154374703764915,0.005867401137948036,0.005993180442601442,0.24072803556919098,-0.012183970771729946
1659093223722,-0.0005126334144733846,0.0010878673056140542,-0.0004290982324164361,0.004406459163874388,0.027524571865797043,0.005836078431457281,0.006011657416820526,0.25651589035987854,-0.009389961138367653
1659093223727,-0.00018347029981669039,0.00047745497431606054,-1.80243696377147e-05,0.006031607277691364,0.021068697795271873,0.006014503072947264,0.006291727535426617,0.2467738837003708,-0.04670008271932602
1659093223732,-0.00015530415112152696,0.0005927058518864214,1.656102540437132e-05,0.005776972509920597,0.023127827793359756,0.00635510915890336,-0.01293348241597414,0.304444283246994,-0.008290919475257397
1659093223737,-0.00012631082790903747,0.0007078729686327279,4.7317094868049026e-05,0.005713844671845436,0.024299010634422302,0.006232602056115866,-0.012965940870344639,0.2889126241207123,-0.011890656314790249
1659093223742,-9.769446478458121e-05,0.0008287018863484263,7.772625394864008e-05,0.005650361534208059,0.02545706182718277,0.006133922375738621,-0.012983444146811962,0.27858224511146545,-0.01329006813466549
1659093223747,-6.95730050210841e-05,0.0009558378951624036,0.00010670047777239233,0.005585072096437216,0.02663453295826912,0.005975272506475449,-0.013002825900912285,0.2719704508781433,-0.016125133261084557
1659093223752,-3.946616925531998e-05,0.0010958273196592927,0.00014241086319088936,0.005816240794956684,0.02853967435657978,0.006804279517382383,0.00688885198906064,0.3130030632019043,0.051070138812065125
1659093223757,-1.0618242413329426e-05,0.0012415562523528934,0.0001712299999780953,0.00584698049351573,0.03005222976207733,0.006701008416712284,0.006833589170128107,0.3110765814781189,0.03777015209197998
1659093223762,0.0003106310323346406,0.00031536357710137963,0.000286776979919523,0.007678369525820017,0.020009709522128105,0.0062644872814416885,0.007730922661721706,0.26950719952583313,-0.005944127682596445
1659093223767,0.00034880981547757983,0.00041542231338098645,0.00031024651252664626,0.007715206127613783,0.021033722907304764,0.005541656166315079,0.0078036487102508545,0.2506287395954132,-0.04401376098394394
1659093223772,0.0003874243702739477,0.0005238995654508471,0.0003376666863914579,0.0077538941986858845,0.022318489849567413,0.005366235505789518,0.007814721204340458,0.25250181555747986,-0.041393376886844635
1659093223777,0.0004262096481397748,0.0006386524764820933,0.00036433732020668685,0.007792528253048658,0.02359064295887947,0.005203617736697197,0.007822580635547638,0.25298672914505005,-0.039369065314531326
1659093223782,0.0004651577619370073,0.0007589247543364763,0.00039735622704029083,0.007832523435354233,0.024731380864977837,0.005988767836242914,0.007957978174090385,0.24271956086158752,0.034075625240802765
1659093223787,0.0005043836426921189,0.00088554120156914,0.00042761387885548174,0.007871732115745544,0.02589734084904194,0.0060917166993021965,0.007931097410619259,0.23849532008171082,0.028100570663809776
1659093223792,0.0005439128144644201,0.0010174624621868134,0.0004585923452395946,0.007911911234259605,0.02698887698352337,0.0062534501776099205,0.007931697182357311,0.23229749500751495,0.02938048541545868
1659093223797,0.0005209531518630683,0.00018998130690306425,0.0008379616192542017,0.005734817124903202,0.017970135435461998,0.009475382044911385,-0.012526985257863998,0.2493288218975067,0.028996475040912628
1659093223802,0.0005495534278452396,0.0002855333441402763,0.0008861589012667537,0.005673303734511137,0.019519271329045296,0.009666449390351772,-0.012509748339653015,0.2658531367778778,0.03147917613387108
1659093223807,0.0005777972401119769,0.0003902538155671209,0.0009368989267386496,0.005611712578684092,0.0211865846067667,0.010001007467508316,-0.012473438866436481,0.2803449034690857,0.03907260671257973
1659093223812,0.0006074198754504323,0.0005077456007711589,0.0009910583030432463,0.005790754687041044,0.023479372262954712,0.010610487312078476,0.006796808913350105,0.3396833539009094,0.06734540313482285
1659093223817,0.0006364972796291113,0.0006293845362961292,0.0010449988767504692,0.00582495192065835,0.025065166875720024,0.010943683795630932,0.00678879301995039,0.3293093740940094,0.0669870600104332
1659093223822,0.0006657253252342343,0.0007584954146295786,0.0011006356216967106,0.005859090946614742,0.02663883939385414,0.011293238960206509,0.006789562292397022,0.3247324526309967,0.06789751350879669
1659093223827,0.0005056231748312712,0.00028123013908043504,0.00081982696428895,0.00423777848482132,0.01974065974354744,0.0060780951753258705,0.0059244646690785885,0.2570485770702362,-0.015175584703683853
1659093223832,0.0005269316025078297,0.00038500456139445305,0.0008524456643499434,0.004267998971045017,0.021116027608513832,0.006122238002717495,0.005940903909504414,0.260198712348938,-0.01092504058033228
1659093223837,0.0005483263521455228,0.0004945602267980576,0.0008837240748107433,0.004297696053981781,0.022454772144556046,0.006108491215854883,0.005945603828877211,0.2613745629787445,-0.009667201898992062
1659093223842,0.0005700141773559153,0.0006109244422987103,0.0009130534017458558,0.004328239243477583,0.023799633607268333,0.006007273215800524,0.005940320901572704,0.262387752532959,-0.011089912615716457
1659093223847,0.0005918488604947925,0.000733042077627033,0.000945811509154737,0.004354814998805523,0.025021992623806,0.006485809572041035,0.005663102492690086,0.25440043210983276,0.029384158551692963
1659093223852,0.0006139308679848909,0.0008651051321066916,0.000973602756857872,0.004384031519293785,0.026500757783651352,0.006362815387547016,0.005628596991300583,0.26169198751449585,0.01991048827767372
1659093223857,0.0006361601990647614,0.001008257269859314,0.0010024041403084993,0.004413422662764788,0.028171850368380547,0.006298979744315147,0.005613129585981369,0.27254292368888855,0.015015903860330582
1659093223862,0.0004810674290638417,0.0001545736304251477,0.0006668669520877302,0.0028175502084195614,0.017841845750808716,0.0021772589534521103,0.005243745632469654,0.22018174827098846,-0.0013466516975313425
1659093223867,0.000495368440169841,0.00024598120944574475,0.0006779175600968301,0.0028451704420149326,0.018842197954654694,0.0021961398888379335,0.005249996203929186,0.2151203453540802,-6.046972703188658e-05
1659093223872,0.0005097095272503793,0.00034238319494761527,0.0006888844654895365,0.002871818607673049,0.019860224798321724,0.0021913154050707817,0.0052496339194476604,0.21279901266098022,-0.0002490496844984591
1659093223877,0.0005241587641648948,0.00045196065912023187,0.0006971224793232977,0.0029012546874582767,0.021748706698417664,0.0019149642903357744,0.005452705081552267,0.2654142677783966,-0.015890004113316536
1659093223882,0.0005387453711591661,0.0005665210774168372,0.0007079211063683033,0.002929248381406069,0.02331683039665222,0.0019703954458236694,0.00548743549734354,0.2783666253089905,-0.00865982472896576
1659093223887,0.0005534689989872277,0.0006892636884003878,0.0007193770725280046,0.0029573373030871153,0.024919508025050163,0.002061026869341731,0.005514038261026144,0.28728941082954407,-0.002997403498739004
1659093223892,0.0005699950852431357,0.0008204778423532844,0.0007356705027632415,0.0032251435332000256,0.026628080755472183,0.002756231464445591,0.024714918807148933,0.3026399612426758,0.047899000346660614
1659093223897,0.0005058026290498674,0.0002485050936229527,0.0007570743327960372,0.0023299732711166143,0.019783278927206993,0.002287620212882757,0.023995762690901756,0.23462988436222076,-0.00012516971037257463
1659093223902,0.0005177053972147405,0.00035041835508309305,0.0007687922916375101,0.0024495450779795647,0.020958341658115387,0.002294450532644987,0.023995958268642426,0.2346334308385849,-0.00011356487812008709
1659093223912,0.0005389068392105401,0.0005702967173419893,0.0007848383393138647,0.0022897946182638407,0.02318432740867138,0.0016431885305792093,0.004380282014608383,0.22884497046470642,-0.03245120123028755
1659093223927,0.0003459318249952048,0.0003290036984253675,0.0006167254759930074,0.0004923150991089642,0.02155737765133381,0.0005007225554436445,0.022771058604121208,0.2881486415863037,0.008229897357523441
1659093223942,0.0003524239582475275,0.000676478783134371,0.0006270472076721489,0.00045243886415846646,0.02504252828657627,0.0006818259716965258,0.0034057050943374634,0.24632486701011658,0.01198136992752552
1659093223957,0.00035973801277577877,0.0010791964596137404,0.0006326123257167637,0.0005072201020084321,0.028901034966111183,0.0004144383710809052,0.0036158408038318157,0.2658969461917877,-0.00824742577970028
1659093223972,0.00038515793858096004,0.0003843012382276356,0.0006988519453443587,-0.0001245502644451335,0.0224948488175869,0.0005204814369790256,0.0028772044461220503,0.26868322491645813,-0.009307934902608395
1659093223991,0.00038358158781193197,0.0008903583511710167,0.00071879499591887,-5.9890662669204175e-05,0.028061939403414726,0.0010455807205289602,0.003091671969741583,0.2771649658679962,0.014002923853695393
1659093224006,0.0003785280860029161,0.0003864961618091911,0.0007892994908615947,-0.0009589188848622143,0.022869320586323738,8.920604886952788e-05,0.0021396393422037363,0.26804319024086,-0.02051718533039093
1659093224022,0.0003644206444732845,0.0007838652818463743,0.0007990843732841313,-0.0009213738376274705,0.028339004144072533,0.0005614803521893919,0.0024069573264569044,0.31621140241622925,0.012651477940380573
1659093224037,5.124698509462178e-05,0.0005423959228210151,0.0005341572104953229,-0.003796361619606614,0.02410293184220791,-0.0024460959248244762,0.0006952343392185867,0.24416661262512207,-0.04448585584759712
1659093224052,-6.144524377305061e-06,0.0009340711403638124,0.0004975427873432636,-0.0037845363840460777,0.028063971549272537,-0.0023056718055158854,0.0010815632995218039,0.26190242171287537,0.013656865805387497
1659093224067,9.503204637439921e-05,0.0005175992264412344,0.0004913693992421031,-0.0031063463538885117,0.02447807975113392,-0.002256757114082575,0.0008357776096090674,0.2878487706184387,0.0313987135887146
1659093224087,3.314366767881438e-05,0.001062836847268045,0.0004431142588146031,-0.003088654251769185,0.030156638473272324,-0.0024994269479066133,0.0008822298259474337,0.2881987690925598,-0.012618975713849068
1659093224102,-7.725481555098668e-05,0.0005337171605788171,0.0002929510083049536,-0.004603073466569185,0.023798765614628792,-0.004451042041182518,-0.019039183855056763,0.2865810692310333,-0.00836352352052927
1659093224117,-0.0001457859034417197,0.0009081372409127653,0.0002287071692990139,-0.004552076105028391,0.027002178132534027,-0.004327703732997179,0.0004037601174786687,0.23801541328430176,0.0031816361006349325
1659093224132,0.00019465555669739842,0.00031499331817030907,0.0004319677536841482,-0.001996036618947983,0.020310232415795326,-0.003233213210478425,0.001529422588646412,0.2469644546508789,0.019875163212418556
1659093224147,0.0001649660844122991,0.000644973770249635,0.00038434049929492176,-0.001975810620933771,0.024103764444589615,-0.0025244203861802816,0.0013350341469049454,0.26244106888771057,0.06151540204882622
1659093224177,0.00010610430763335899,0.00144015287514776,0.00031743390718474984,-0.0019403485348448157,0.03136583790183067,-0.0013686290476471186,0.0014354548184201121,0.3230152428150177,0.036281734704971313
1659093224197,0.00010942595690721646,0.00041047431295737624,-3.9895625377539545e-05,-0.0022700668778270483,0.02127132937312126,-0.006205406039953232,0.0011717473389580846,0.26351723074913025,0.02726721577346325
1659093224212,7.512332376791164e-05,0.0007568498840555549,-0.00013891144772060215,-0.0022601396776735783,0.02510262094438076,-0.006705965846776962,0.0009015875402837992,0.2598203122615814,-0.020282816141843796
1659093224227,0.000460909417597577,0.00030276650795713067,-0.00021655616001226008,0.0004308503121137619,0.020701341331005096,-0.008186924271285534,0.0019683020655065775,0.2647150158882141,-0.011079015210270882
1659093224242,0.00046737765660509467,0.0006420867866836488,-0.0003385309246368706,0.0004620191175490618,0.024635784327983856,-0.008147180080413818,0.002177768386900425,0.26566195487976074,-0.0002742120996117592
1659093224262,0.00012965768110007048,-1.4770862435398158e-06,1.9639972379081883e-05,-0.004594292491674423,0.01630147360265255,-0.003929357044398785,-0.0005362661322578788,0.23615866899490356,-0.013595608063042164
1659093224277,6.118078454164788e-05,0.00027066710754297674,-4.348127549747005e-05,-0.004598767496645451,0.01992155611515045,-0.004137062001973391,-0.0005424600094556808,0.23936708271503448,-0.007914149202406406
1659093224292,9.709666483104229e-05,0.0002494011423550546,0.00030258146580308676,-0.004443573299795389,0.020168961957097054,-0.0011475166538730264,-0.00021755156922154129,0.24811962246894836,-0.02544291503727436
1659093224307,2.5628394723753445e-05,0.0005704683717340231,0.000286320224404335,-0.004491095431149006,0.02312496490776539,-0.0009687226847745478,-0.00032205379102379084,0.2089846283197403,0.005134746432304382
1659093224322,-4.3190597352804616e-05,0.0009553941199555993,0.00026198476552963257,-0.0045087989419698715,0.027616795152425766,-0.0015872191870585084,-0.0003848832275252789,0.27967411279678345,-0.023261090740561485
1659093224342,0.000342775194440037,0.0006668319692835212,0.0007772715180180967,-0.0019101504003629088,0.02357833832502365,0.0020252959802746773,0.0006659139762632549,0.21595732867717743,-0.02678215131163597
1659093224357,0.00031297895475290716,0.0010429908288642764,0.0008203519973903894,-0.0019048415124416351,0.026949241757392883,0.0028811730444431305,0.0009573783027008176,0.23587119579315186,0.026691729202866554
1659093224372,0.0006910557276569307,0.0005023305420763791,0.000608361151535064,0.0010551523882895708,0.02336142025887966,-0.0020839511416852474,0.002143965335562825,0.28038471937179565,-0.03697211295366287
1659093224387,0.0007065524696372449,0.0008616530103608966,0.0005859470693394542,0.0010870554251596332,0.025784023106098175,-0.0014109377516433597,0.0023710073437541723,0.2014278620481491,0.026056574657559395
1659093224402,0.0006481033633463085,0.00023924277047626674,0.0006503761396743357,-0.000325094471918419,0.01943078637123108,-0.0018320990493521094,0.0017303330823779106,0.275855153799057,-0.05068492144346237
1659093224422,0.0006409809575416148,0.0006552888662554324,0.0006123253260739148,-0.00029121668194420636,0.02353987842798233,-0.00200649700127542,0.002060716738924384,0.23196068406105042,-0.012148546986281872
1659093224437,0.0006088212830945849,0.00016264703299384564,0.0007031174609437585,-0.0015374438371509314,0.018679805099964142,-0.0020637663546949625,-0.017418408766388893,0.22610220313072205,-0.031920742243528366
1659093224452,0.0005868260632269084,0.00047363509656861424,0.0006747732986696064,-0.0014603602467104793,0.02263706922531128,-0.00187305745203048,0.0019561268854886293,0.2506861388683319,0.0035104157868772745
1659093224467,0.0005977896507829428,0.0003903219476342201,0.0005710877012461424,-0.0013124644756317139,0.022339701652526855,-0.0028641391545534134,0.0015841939020901918,0.25170522928237915,-0.013496121391654015
1659093224482,0.000577412371058017,0.0007654742803424597,0.0005175171536393464,-0.0012965714558959007,0.026758329942822456,-0.003547361120581627,0.0015678278869017959,0.27297067642211914,-0.02943834476172924
1659093224497,0.0006910734809935093,0.0005076561938039958,0.0007555691408924758,-0.0004944700631313026,0.023860245943069458,-0.0011753618018701673,0.021030522882938385,0.26580533385276794,-0.00554132042452693
1659093224512,0.0006824273732490838,0.000905938446521759,0.0007358785369433463,-0.0002128143241861835,0.02844848483800888,-0.0012130276300013065,0.02088937535881996,0.3009416162967682,-0.003179562510922551
1659093224527,0.0006750755128450692,0.0013533785240724683,0.0007161627872847021,-0.0004911536816507578,0.03271728381514549,-0.0012970363022759557,-0.017805270850658417,0.33399733901023865,-0.005832179449498653
1659093224548,0.00054021185496822,0.0012922947062179446,0.0008944082073867321,-0.002259982516989112,0.029996365308761597,-0.0006858823471702635,0.000598954560700804,0.26228705048561096,-0.03118412382900715
1659093224562,3.725289207068272e-05,0.0006896771374158561,-5.182081076782197e-05,-0.0057260822504758835,0.021637093275785446,-0.008280160836875439,-0.0006622959626838565,0.25490495562553406,-0.002751946449279785
1659093224578,-4.9221365770790726e-05,0.0010333836544305086,-0.00017282449698541313,-0.005742461886256933,0.024760941043496132,-0.007985065691173077,-0.0007903061341494322,0.22392842173576355,0.013609765097498894
1659093224591,0.0002768318518064916,0.0004986569983884692,0.00027564092306420207,-0.003481372492387891,0.020567214116454124,-0.005314326845109463,-0.0002785926917567849,0.28025928139686584,-0.0012535839341580868
1659093224612,0.00020638828573282808,0.000937336590141058,0.00015754504420328885,-0.003500857390463352,0.023969098925590515,-0.006167376879602671,-0.0006637208862230182,0.18919427692890167,-0.03367306664586067
1659093224627,0.0006296873325482011,0.0001825345098040998,0.0005964339943602681,-0.0005497448146343231,0.016016989946365356,-0.0017559333937242627,0.000758431211579591,0.24596218764781952,0.01013379916548729
1659093224642,0.0006218875059857965,0.00044784738565795124,0.0005779219791293144,-0.0005365574033930898,0.019468899816274643,-0.001230341731570661,0.000663546088617295,0.23452867567539215,0.022317485883831978
1659093224657,0.0006107125664129853,0.0007656469824723899,0.0005589736392721534,-0.0008689165115356445,0.022915037348866463,-0.001235924893990159,-0.018889637663960457,0.2299177050590515,0.002036824356764555
1659093224671,0.0006571055273525417,4.7870369598967955e-05,0.0008520607952959836,-0.0015932823298498988,0.016254598274827003,0.0004201451374683529,0.00010452273272676393,0.23243992030620575,0.0323028638958931
1659093224687,0.0006334149511530995,0.00033034637453965843,0.0008553433581255376,-0.00159079406876117,0.020648634061217308,0.0002461457042954862,8.000453090062365e-05,0.2709794342517853,-0.003512607654556632
1659093224702,0.0006074158591218293,0.00037906048237346113,0.000735693087335676,-0.0014442319516092539,0.021201275289058685,-0.0013652609195560217,0.0002844796690624207,0.23850420117378235,-0.0019870861433446407
1659093224717,0.0005858749500475824,0.0007250349153764546,0.0007176598301157355,-0.0014412561431527138,0.025202764198184013,-0.0007209016475826502,0.00016860301548149437,0.2775580883026123,0.05696775019168854
1659093224736,0.00030489652999676764,0.000346638320479542,0.0006209767889231443,-0.004039260558784008,0.019065750762820244,-0.0026023073587566614,-0.0006839327397756279,0.21880364418029785,-0.02699747495353222
1659093224752,0.00024017450050450861,0.0006773709901608527,0.0005834518815390766,-0.004399952944368124,0.02428497187793255,-0.0025022190529853106,-0.02032381482422352,0.3069048523902893,0.004793133586645126
1659093224767,0.0006555094150826335,-0.00019857383449561894,0.0005432263715192676,-0.0008705307263880968,0.015227624215185642,-0.00371551769785583,0.0003539841272868216,0.2310875803232193,-0.01982128992676735
1659093224782,0.0006429256172850728,3.786263187066652e-05,0.0004914291785098612,-0.0008600696455687284,0.0178089402616024,-0.003391966689378023,0.00046321036643348634,0.2057267427444458,0.015048561617732048
1659093224797,0.0005917426315136254,-0.00014693690172862262,0.0006871329387649894,-0.0018989727832376957,0.017958389595150948,-0.0028977226465940475,-0.0007940724608488381,0.27230414748191833,-0.033076345920562744
1659093224817,0.0005518299876712263,0.0002776704786811024,0.0006579042528755963,-0.0019295107340440154,0.024279460310935974,-0.0006353811477310956,-0.0006840297719463706,0.3022874593734741,0.08768156170845032
1659093224832,0.0005874006892554462,0.00021357017976697534,0.001152134733274579,-0.0022332542575895786,0.02189270779490471,0.00214599072933197,-0.0008829575381241739,0.23923750221729279,-0.0012818733230233192
1659093224847,0.0005588224739767611,0.0005964083247818053,0.001175273209810257,-0.001836767653003335,0.027407662943005562,0.0014238306321203709,0.018447237089276314,0.3149911165237427,-0.032013047486543655
1659093224862,0.0006534034619107842,0.00020866100385319442,0.0006067776121199131,0.0002251768164569512,0.02205464243888855,-0.0030970037914812565,3.405704046599567e-05,0.27857497334480286,0.0027808304876089096
1659093224877,0.000658469449263066,0.0005665716016665101,0.000554408470634371,0.0002373674069531262,0.025822991505265236,-0.0036814440973103046,-0.00011010801244992763,0.2590602934360504,-0.029550038278102875
1659093224892,0.0006628796108998358,0.0009743152186274529,0.0005148604977875948,0.00025213652406819165,0.029271041974425316,-0.0027809939347207546,0.0004235796513967216,0.24918003380298615,0.02645857259631157
1659093224907,0.0007071584113873541,0.00045023849816061556,0.0006464218022301793,-0.00014268311497289687,0.02474616840481758,-0.002631385112181306,0.0007531930459663272,0.2964431941509247,0.011319120414555073
1659093224927,0.0007109086727723479,-4.3104686483275145e-05,0.0007410300895571709,-0.0012834477238357067,0.01667334884405136,-0.0023200304713100195,-0.01903364062309265,0.21891357004642487,-0.012919490225613117
1659093224941,0.0006947687943466008,0.0002283529902342707,0.0007177999359555542,-0.0011459228117018938,0.01987658441066742,-0.0017083517741411924,0.00074471824336797,0.22080457210540771,0.01649451069533825
1659093224956,0.000677750853355974,0.000560530461370945,0.0006757274968549609,-0.0011407907586544752,0.02373514324426651,-0.003173022298142314,0.0003507913206703961,0.23503383994102478,-0.07099947333335876
1659093224971,0.0008503511780872941,0.0003067997458856553,0.0010944412788376212,-0.0005437523359432817,0.020609790459275246,0.0004094805917702615,0.0005381594528444111,0.1916785091161728,-0.013285528868436813
1659093224987,0.000839041022118181,0.0006507853395305574,0.0011064561549574137,-0.0008705936488695443,0.02480432763695717,0.0007738764979876578,-0.018573611974716187,0.2633092701435089,0.011458754539489746
1659093225002,0.0007823240011930466,0.0004538018547464162,0.0010750885121524334,-0.0014935462968423963,0.021208161488175392,0.0002747364924289286,0.0005975557724013925,0.1748887449502945,0.0031101368367671967
1659093225022,0.0007491179858334363,0.0009353076457045972,0.0010800904128700495,-0.0018227394903078675,0.02635413408279419,0.00016721578140277416,-0.018768444657325745,0.2482520490884781,-0.008322046138346195
1659093225037,0.0007691237260587513,0.0007241506827995181,0.0011059741955250502,-0.0017706230282783508,0.024198688566684723,-0.0008700049947947264,0.00030240448541007936,0.21043068170547485,-0.0158950574696064
1659093225052,0.0007394415442831814,0.0011243378976359963,0.001101854839362204,-0.002101909602060914,0.028570763766765594,-8.974500087788329e-05,-0.01890578307211399,0.26796701550483704,0.03538917377591133
1659093225067,0.0012904539471492171,-0.00030632238485850394,0.0012575213331729174,0.0017521262634545565,0.013271217234432697,-0.00024362734984606504,0.0013380764285102487,0.24155303835868835,-0.003306187689304352
1659093225081,0.0013201350811868906,-9.137851884588599e-05,0.0012487195199355483,0.002111168811097741,0.016339411959052086,-0.0006098113371990621,0.02068975940346718,0.22507701814174652,-0.016666267067193985
1659093225098,0.0010733591625466943,-0.00011209434160264209,0.001176059595309198,-0.0004165777936577797,0.01763519085943699,-0.0016740437131375074,-0.00013348294305615127,0.25618061423301697,-0.05801498517394066
1659093225112,0.0010648694587871432,0.00016324082389473915,0.0011612750822678208,-0.00042573511018417776,0.01989642158150673,-0.0005896979128010571,0.0005573098314926028,0.17274358868598938,0.06969322264194489
1659093225132,0.001066844561137259,0.0002470616309437901,0.0019534695893526077,-0.0017511589685454965,0.022426709532737732,0.005873970687389374,0.0002355179312871769,0.23579289019107819,0.00754518061876297
1659093225147,0.001040055649355054,0.0006086812354624271,0.0020550459157675505,-0.0017508977325633168,0.025858107954263687,0.006960486527532339,0.0002725976228248328,0.23071804642677307,0.048464156687259674
1659093225161,0.000935970398131758,0.0001449978444725275,0.0008281668415293097,-0.0007868128013797104,0.01979619637131691,-0.005062021315097809,0.00041552772745490074,0.2560940980911255,0.01677810028195381
1659093225177,0.0009222817607223988,0.00046390146599151194,0.0007566025597043335,-0.0008004097617231309,0.02298620715737343,-0.004324869718402624,0.0002910326875280589,0.2234233170747757,0.04959048703312874
1659093225192,0.0009100784081965685,0.0008409928996115923,0.0006912656244821846,-0.0007998773944564164,0.02639274299144745,-0.00452005211263895,8.993815572466701e-05,0.20220273733139038,-0.021146362647414207
1659093225207,0.0005978651461191475,-0.00014991112402640283,0.0005554718081839383,-0.003809503512457013,0.017739320173859596,-0.005415752530097961,-0.000553869002033025,0.28399789333343506,0.03759314864873886
1659093225227,0.0005916585214436054,-0.000266790360910818,0.0006812564679421484,-0.003914527595043182,0.017463352531194687,-0.004923773929476738,-0.0011109054321423173,0.27938130497932434,-0.02991563081741333
1659093225242,0.0005372771411202848,1.7526863302919082e-05,0.0006123777711763978,-0.0035328969825059175,0.020816780626773834,-0.0045873913913965225,0.01817093975841999,0.237989604473114,0.009275069460272789
1659093225267,0.0011306034866720438,0.00010454981384100392,0.0009676745976321399,0.001425786642357707,0.02198604680597782,-0.0019867660012096167,-0.0002877611550502479,0.2395753115415573,0.0033329445868730545
1659093225287,0.0011580114951357245,0.0005948046455159783,0.0009446135372854769,0.0014114006189629436,0.026529058814048767,-0.0024882617872208357,-0.0005487652379088104,0.20839105546474457,-0.098142109811306
1659093225302,0.0008433753973804414,0.0005522420397028327,0.0013689371990039945,-0.00259972526691854,0.025867171585559845,0.0027063763700425625,-0.0011352882720530033,0.23847390711307526,-0.003073775675147772
1659093225317,0.000805135234259069,0.0009666330297477543,0.0014104059664532542,-0.002607056638225913,0.02937886118888855,0.002952984534204006,-0.0009516187128610909,0.23876389861106873,0.012216215953230858
1659093225337,0.0013977851485833526,0.00029038829961791635,0.0012058969587087631,0.0021879312116652727,0.022222712635993958,-0.0022077884059399366,-0.0003265752748120576,0.2568404972553253,-0.021867506206035614
1659093225352,0.0014305021613836288,0.0006504658376798034,0.0011736046290025115,0.0021842319983989,0.025826232507824898,-0.00215841643512249,-0.00022408555378206074,0.24137607216835022,5.39321918040514e-05
1659093225367,0.0013549329014495015,0.00014462719263974577,0.0011055320501327515,0.0011830400908365846,0.020487049594521523,-0.0010848715901374817,-0.00041676952969282866,0.26025208830833435,0.031315192580223083
1659093225382,0.001369026256725192,0.0004868892428930849,0.0010936749167740345,0.0008331599528901279,0.024550551548600197,-0.000345596024999395,-0.019835680723190308,0.25755488872528076,0.05133667215704918
1659093225397,0.0010547242127358913,5.11044381710235e-05,0.0008607817580923438,-0.002348818350583315,0.01953285187482834,-0.003541200188919902,-0.020596642047166824,0.2558569610118866,-0.015213416889309883
1659093225412,0.0010236692614853382,0.0003607611870393157,0.0008162080775946379,-0.002175969770178199,0.02249130792915821,-0.0029253277461975813,-0.0005811078008264303,0.21769383549690247,0.023120813071727753
1659093225432,0.0006867177435196936,-6.972610572120175e-05,0.000962087360676378,-0.0052168709225952625,0.01786702685058117,-0.0015472735976800323,-0.0011704780627042055,0.26367688179016113,-0.021096620708703995
1659093225446,0.0006039905129000545,0.00022951966093387455,0.0009515940328128636,-0.005629190243780613,0.021947184577584267,-0.0005170253571122885,-0.02054990828037262,0.2693566381931305,0.04465299844741821
1659093225461,0.0006667131674475968,-0.0005091784405522048,0.000787528115324676,-0.005186210852116346,0.014198589138686657,-0.003809333546087146,-0.020769532769918442,0.25046464800834656,-0.037483714520931244
1659093225477,0.0005939652910456061,-0.00027763276011683047,0.0007412158884108067,-0.004734450951218605,0.017315158620476723,-0.0026299157179892063,0.017887478694319725,0.2277577519416809,0.061675749719142914
1659093225492,0.0008947586175054312,-0.00013732563820667565,0.000874907651450485,-0.001875229412689805,0.020474128425121307,-0.0011762521462514997,-0.00046618792111985385,0.24015240371227264,0.0587683729827404
1659093225507,0.0008669684175401926,0.00019124527170788497,0.0008576441905461252,-0.0018796415533870459,0.023552924394607544,-0.000988909276202321,-0.0004582519759424031,0.21614602208137512,0.012935394421219826
1659093225522,0.0008387949201278389,0.0005838784854859114,0.0008454740163870156,-0.0018873014487326145,0.028117844834923744,-0.0007622642442584038,-0.000575810787267983,0.29014480113983154,0.010227853432297707
1659093225537,0.0008673658012412488,0.00016329341451637447,0.0007246134919114411,-0.0018344431882724166,0.02288898080587387,-0.004038174636662006,-0.0007446944946423173,0.24712243676185608,-0.051852136850357056
1659093225552,0.0008390199509449303,0.0005251180264167488,0.000685584731400013,-0.0018419913249090314,0.025760939344763756,-0.0022421448957175016,-0.000140870368340984,0.2037820816040039,0.09150759130716324
1659093225567,0.00102538603823632,-0.0005260889884084463,0.0012835708912461996,-0.0013354935217648745,0.015309687703847885,0.0017624293686822057,0.01936752162873745,0.2699572741985321,0.03328365832567215
1659093225587,0.001000813557766378,-0.00016583778779022396,0.0013139345683157444,-0.0012382001150399446,0.02019263058900833,0.00193219562061131,-0.00027285065152682364,0.22248142957687378,0.021792879328131676
1659093225602,0.00131206342484802,-0.0002145809994544834,0.001265603001229465,0.001319953124038875,0.021019212901592255,-0.00043418456334620714,0.0005699354805983603,0.27320829033851624,-0.03893250226974487
1659093225617,0.0013338580029085279,0.00013074885646346956,0.0012592391576617956,0.0015749981394037604,0.025018032640218735,-0.0003824797458946705,0.020076580345630646,0.2552904486656189,-0.000799619359895587
1659093225632,0.0010645376751199365,0.0001055492102750577,0.0009927178034558892,-0.0009010093635879457,0.022671671584248543,-0.0026730189565569162,0.00040811364306136966,0.24830690026283264,0.008607945404946804
1659093225647,0.0010511877480894327,0.00047217399696819484,0.0009554022690281272,-0.000893895048648119,0.026232333853840828,-0.002570047974586487,0.00035246770130470395,0.2358965277671814,-0.005617374554276466
1659093225662,0.001113614533096552,-0.0002868501760531217,0.0007141447858884931,-0.000620877486653626,0.017351539805531502,-0.005582104902714491,0.0001592028420418501,0.26179972290992737,-0.014401966705918312
1659093225677,0.0011067461455240846,-2.0418196072569117e-05,0.0006600315682590008,-0.0005929553881287575,0.020195424556732178,-0.00435430696234107,0.00029517579241655767,0.2346498817205429,0.02178249880671501
1659093225692,0.0010989882284775376,0.0003099003224633634,0.0005804082611575723,-0.0005797844496555626,0.024735242128372192,-0.006011577323079109,0.0002815832558553666,0.29324793815612793,-0.07045513391494751
1659093225707,0.0009075814159587026,0.00044291734229773283,0.0013039022451266646,-0.0036087334156036377,0.024502770975232124,0.0010599892120808363,-0.0009930648375302553,0.20599894225597382,-0.00016105070244520903
1659093225727,0.0011764311930164695,0.00042228796519339085,0.0008771112188696861,-0.00018521012680139393,0.023980025202035904,-0.004449071362614632,0.019049640744924545,0.2485360950231552,-0.02424602210521698
1659093225742,0.001173436758108437,0.0008096041856333613,0.0008108583861030638,-0.00018423658912070096,0.027720190584659576,-0.004446132108569145,0.0001957556523848325,0.2523903548717499,0.00043617701157927513
1659093225757,0.0011707921512424946,0.001227745320647955,0.0007348836516030133,-0.00018138198356609792,0.029549047350883484,-0.005237590987235308,0.00020748635870404541,0.1577901840209961,-0.04444999620318413
1659093225772,0.0014392458833754063,0.000226598305744119,0.0012813196517527103,0.0004104997497051954,0.022416286170482635,-0.0007842843770049512,0.00031091520213522017,0.25447794795036316,-0.01580287702381611
1659093225791,0.0014457607176154852,0.000567422597669065,0.0012622226495295763,0.0004140894743613899,0.024544255807995796,-0.0014301229966804385,0.00017904667765833437,0.1942533254623413,-0.0308410432189703
1659093225802,0.000995142268948257,0.00012138037709519267,0.0010962466476485133,-0.004069533199071884,0.02065177634358406,-0.0026663776952773333,-0.01986686885356903,0.23411865532398224,-0.03561601787805557
1659093225817,0.0009384886943735182,0.0004511484003160149,0.0010686845052987337,-0.0038749217055737972,0.023712554946541786,-0.0019297960679978132,-0.0007971877348609269,0.2169668972492218,0.016584377735853195
1659093225832,0.0010449026012793183,0.00012919075379613787,0.0010654915822669864,-0.0030545275658369064,0.020088117569684982,-0.0037115917075425386,-0.0007660092669539154,0.22251732647418976,-0.05237932875752449
1659093225852,0.0009835718665271997,0.0005596900009550154,0.0009965312201529741,-0.003075930755585432,0.023465218022465706,-0.004137437790632248,-0.0009859733982011676,0.1800759732723236,-0.06492017954587936
1659093225867,0.0006934492848813534,0.0006027489434927702,0.0008525749435648322,-0.005255544558167458,0.02420765534043312,-0.00434526801109314,-0.0007961439550854266,0.23965972661972046,-0.0253813024610281
1659093225882,0.0006147453095763922,0.0009883876191452146,0.0007941682124510407,-0.005262916442006826,0.02766536734998226,-0.003946337383240461,-0.0006618624902330339,0.23838771879673004,0.006052037235349417
1659093225897,0.0009112194529734552,-1.4205127172317589e-06,0.0014032518956810236,-0.0037748704198747873,0.018618058413267136,0.0009215110912919044,-0.0006617671460844576,0.26539018750190735,0.025303537026047707
1659093225912,0.0008615404367446899,0.00031434904667548835,0.0014179276768118143,-0.0032802862115204334,0.022910019382834435,0.0010988166322931647,0.018764227628707886,0.2720528542995453,0.015846485272049904
1659093225927,0.0008092961506918073,0.0006485997000709176,0.00141984224319458,-0.0034411537926644087,0.02430042438209057,0.0002862703404389322,-0.0008517802343703806,0.1730646938085556,-0.020964840427041054
1659093225942,0.0011488939635455608,0.00016410253010690212,0.0011790954740718007,-9.873598901322111e-05,0.02208276093006134,-0.0022064202930778265,0.018893243744969368,0.26646652817726135,0.01320598553866148
1659093225957,0.001144796027801931,0.0005009127780795097,0.0011452015023678541,-0.00025127280969172716,0.02420753426849842,-0.0021728230640292168,-0.0005827801069244742,0.18997159600257874,0.0078880675137043
1659093225972,0.001190073206089437,-0.00030676258029416203,0.0010232425993308425,-0.00010691018542274833,0.017071736976504326,-0.003591233165934682,-7.657322566956282e-05,0.24051061272621155,-0.020226996392011642
1659093225992,0.001187809044495225,6.607791874557734e-05,0.0009517694707028568,-0.00011169404024258256,0.020563174039125443,-0.003588772611692548,-0.00019451542175374925,0.1881372034549713,-0.0002496689558029175
1659093226007,0.001022937474772334,3.0029064873815514e-05,0.0013048580149188638,-0.0020658764988183975,0.02209312841296196,-0.00045062031131237745,-0.0003198868071194738,0.259464830160141,-0.0034986783284693956
1659093226022,0.000991317443549633,0.0003544106730259955,0.0012994454009458423,-0.0020978765096515417,0.02396918274462223,-0.00042839223169721663,-0.0011087609454989433,0.19803549349308014,-0.001739861210808158
1659093226036,0.0012741385726258159,7.753205136395991e-05,0.0009610898559913039,0.0008597183041274548,0.02063545025885105,-0.003872542642056942,-0.00017210864461958408,0.21389886736869812,-0.004168011713773012
1659093226051,0.0012863993179053068,0.0004116976633667946,0.0009150456171482801,0.0008526796591468155,0.023972561582922935,-0.0028090591076761484,-0.00010985461995005608,0.22194796800613403,0.048376500606536865
1659093226066,0.0014316961169242859,-5.325058737071231e-05,0.0011268564267084002,0.0013518251944333315,0.019519392400979996,-0.0017186793265864253,8.750971755944192e-05,0.23940043151378632,0.00023157242685556412
1659093226082,0.001451027113944292,0.0002733564469963312,0.001090213074348867,0.0013433856656774879,0.023584824055433273,-0.0022570095025002956,6.353719800245017e-05,0.25846782326698303,-0.015106922015547752
1659093226101,0.0012586921220645308,0.00017161216237582266,0.0008642181637696922,-0.00038821378257125616,0.020803144201636314,-0.004320335108786821,-8.373699529329315e-05,0.2248949110507965,-0.026629094034433365
1659093226117,0.0012521888129413128,0.0005094586522318423,0.0008068418246693909,-0.00039790463051758707,0.024119267240166664,-0.003886796999722719,-0.00019516036263667047,0.22080013155937195,0.007074110209941864
1659093226131,0.0010892547434195876,0.0005398946814239025,0.0013881562044844031,-0.0027377125807106495,0.024872463196516037,0.001854485715739429,-0.0008836563210934401,0.24086594581604004,0.00953596830368042
1659093226147,0.0010479616466909647,0.0009385015582665801,0.00139727967325598,-0.002759565832093358,0.028377123177051544,0.0005047334707342088,-0.0012200383935123682,0.23693613708019257,-0.049923695623874664
1659093226161,0.0011347390245646238,0.0003561092307791114,0.0012668974231928587,-0.0019310080679133534,0.02109089493751526,-8.500022522639483e-05,-0.0009459027787670493,0.2531149685382843,0.006061788182705641
1659093226177,0.001106157898902893,0.0007030099513940513,0.0012695749755948782,-0.0019358835415914655,0.02494240552186966,0.0002618747530505061,-0.0006638924241997302,0.25123128294944763,0.018013784661889076
1659093226192,0.0010772529058158398,0.0011072858469560742,0.0012838616967201233,-0.001944367541000247,0.02862693928182125,0.0010284552117809653,-0.000721133139450103,0.23697726428508759,0.033381134271621704
1659093226207,0.0011496375082060695,0.0008861331734806299,0.0010386531939730048,-0.0013005698565393686,0.024703659117221832,-0.0033719551283866167,-0.000521741749253124,0.17107397317886353,-0.007192576304078102
1659093226227,0.001123771071434021,0.0014562386786565185,0.0009960598545148969,-0.0013006092049181461,0.031049607321619987,-0.0025111495051532984,-0.0002333979500690475,0.2833184003829956,0.004148252308368683
1659093226242,0.001317647285759449,0.0004961875383742154,0.0010173695627599955,9.023914753925055e-05,0.020672369748353958,-0.004864938091486692,0.018736910074949265,0.20414261519908905,-0.06528772413730621
1659093226256,0.0013174650957807899,0.0008330148993991315,0.0009628911502659321,-8.034104212129023e-06,0.02423381619155407,-0.003974163439124823,-0.0004650074988603592,0.23229362070560455,0.015244130045175552
1659093226271,0.001370732788927853,0.00034953205613419414,0.0012031036894768476,-0.0005317957838997245,0.019488947466015816,-0.0010863975621759892,-0.0007178723462857306,0.2338755875825882,-0.001863469835370779
1659093226286,0.0013621330726891756,0.000656057323794812,0.0011899248929694295,-0.0005475435173138976,0.021930301561951637,-0.0008420069352723658,-0.0008056610240601003,0.18360422551631927,0.008470974862575531
1659093226301,0.0012839068658649921,0.000377828226191923,0.0012379367835819721,-0.0016711372882127762,0.019523603841662407,-0.0015721309464424849,-0.0010181741090491414,0.1772606074810028,-0.01822754368185997
1659093226317,0.0012587725650519133,0.0006898651481606066,0.0012111803516745567,-0.0016870260005816817,0.022395795211195946,-0.001584536861628294,-0.0010325002949684858,0.19972527027130127,0.010280005633831024
1659093226332,0.0011277999728918076,0.00023068528389558196,0.0010662988061085343,-0.003082917770370841,0.017665941268205643,-0.005601563956588507,-0.001605836907401681,0.21193014085292816,-0.0882098376750946
1659093226347,0.001082013943232596,0.0005180363659746945,0.0009842904983088374,-0.003093071049079299,0.02060876600444317,-0.005783498752862215,-0.0010280102724209428,0.20481477677822113,-0.02181803248822689
1659093226366,0.0007482014480046928,0.0002877156075555831,0.0007500004139728844,-0.00543020898476243,0.018631042912602425,-0.005611144006252289,-0.0014748356770724058,0.22403043508529663,-0.02757563628256321
1659093226382,0.0006668036221526563,0.0005868083098903298,0.00067439692793414,-0.005452053155750036,0.021649453788995743,-0.005103807430714369,-0.0015680022770538926,0.21097595989704132,0.013427507132291794
1659093226396,0.0011465299176052213,5.81216299906373e-05,0.0008897752268239856,-0.0012990017421543598,0.01606336422264576,-0.004057529382407665,-0.00016724164015613496,0.20980264246463776,0.005134665407240391
1659093226412,0.0011265551438555121,0.00032608487526886165,0.0008192508830688894,-0.0013054596493020654,0.0195844154804945,-0.004814957268536091,-0.0001401548070134595,0.22875887155532837,-0.03523949161171913
1659093226426,0.0011069995816797018,0.0006552601116709411,0.0007534128380939364,-0.001306080841459334,0.023648643866181374,-0.004425746854394674,-8.748609252506867e-05,0.25119733810424805,0.010641410015523434
1659093226442,0.001169268973171711,-4.321345841162838e-05,0.000967949687037617,-0.0012148740934208035,0.016385871917009354,-0.002871705451980233,0.018789973109960556,0.2373700886964798,-0.028374314308166504
1659093226457,0.0011502699926495552,0.00020876787311863154,0.0009296691277995706,-0.0014124944573268294,0.018226537853479385,-0.002706486964598298,-0.01995784416794777,0.1457061618566513,-0.0009750775061547756
1659093226477,0.0008613175014033914,0.0005392697639763355,0.0008042118861339986,-0.0034593672025948763,0.023946745321154594,-0.0031532542780041695,-0.000684340309817344,0.20292088389396667,-0.005161836743354797
1659093226491,0.0008062925771810114,0.000930099980905652,0.0007672200445085764,-0.003802151884883642,0.027692779898643494,-0.0022121777292340994,-0.01973572000861168,0.2312060445547104,0.045702479779720306
1659093226506,0.001056671841070056,0.00019316886027809232,0.0003968846285715699,-0.0010567869758233428,0.018676625564694405,-0.006434589624404907,0.001107564545236528,0.1752399057149887,0.028254836797714233
1659093226521,0.00103914609644562,0.0005139956483617425,0.00028500056941993535,-0.0010561851086094975,0.0230184867978096,-0.007555361371487379,0.0010151127353310585,0.25498664379119873,-0.04654344916343689
1659093226536,0.000921591476071626,0.0008881224785000086,0.0006406921893358231,-0.0024689773563295603,0.02755855582654476,-0.0030237529426813126,0.0005745272501371801,0.25586700439453125,-0.008745434693992138
1659093226551,0.0008848889847286046,0.001319770934060216,0.0005785725079476833,-0.002459624083712697,0.030753280967473984,-0.004285409115254879,0.0004865560622420162,0.23098932206630707,-0.05692292004823685
1659093226566,0.0009546918445266783,0.00044771822285838425,0.0008671422838233411,-0.0026545992586761713,0.019557563588023186,-0.0001157303704530932,0.0005103633156977594,0.1640707552433014,0.06190815567970276
1659093226581,0.0009156630840152502,0.0007892634021118283,0.0008660631719976664,-0.0026442173402756453,0.024829743430018425,-9.796205267775804e-05,0.00025248952442780137,0.3147032558917999,-0.008653380908071995
1659093226597,0.0009220599313266575,0.0003209437127225101,0.0004388504894450307,-0.0023262749891728163,0.017487920820713043,-0.006233773194253445,0.00020669985678978264,0.18341311812400818,-0.02904813177883625
1659093226617,0.0008761297794990242,0.0007479524938389659,0.0003233826137147844,-0.002304635476320982,0.02383500337600708,-0.0058681597001850605,0.0007278330740518868,0.28087422251701355,0.004987196996808052
1659093226632,0.0008085243171080947,0.0006425888859666884,0.0006729719461873174,-0.003423259360715747,0.024178219959139824,-0.0022531175054609776,0.00038854393642395735,0.28580033779144287,-0.008088023401796818
1659093226646,0.0007569537847302854,0.0010305173927918077,0.0006376728997565806,-0.0034239133819937706,0.02778402902185917,-0.002444263081997633,0.00010243260476272553,0.24311284720897675,-0.010185576975345612
1659093226661,0.000942273298278451,0.0002569348143879324,0.0007902242359705269,-0.002131001092493534,0.017314579337835312,-0.0019157398492097855,0.0006880539003759623,0.2262362241744995,-0.007070773281157017
1659093226677,0.0009107607183977962,0.0005348888225853443,0.00075986806768924,-0.0021193870343267918,0.020154688507318497,-0.0021981156896799803,0.0005517381941899657,0.19866347312927246,-0.02023659087717533
1659093226692,0.0008794105960987508,0.0008754063746891916,0.0007175143109634519,-0.0021142503246665,0.024500664323568344,-0.0030329006258398294,0.00014608760830014944,0.2654481828212738,-0.03820250928401947
1659093226707,0.000569402240216732,0.0006553743733093143,0.0005436900537461042,-0.004246917087584734,0.02112080715596676,-0.0024925165344029665,-0.0005360633367672563,0.18805697560310364,-0.018253786489367485
1659093226722,0.0005056128720752895,0.0009954790584743023,0.0005080503178760409,-0.004257236607372761,0.02425764501094818,-0.0024754225742071867,-0.0007359629962593317,0.21388834714889526,-0.0027059302665293217
1659093226742,0.0008435678901150823,0.0005826976266689599,0.0007847934029996395,-0.0022240299731492996,0.021254120394587517,-0.0016030960250645876,-0.0196416936814785,0.18927298486232758,-0.019670743495225906
1659093226756,0.000809175951872021,0.0009405171149410307,0.0007575461058877409,-0.0022792427334934473,0.02568337693810463,-0.001867944374680519,-0.00016737297119107097,0.28404444456100464,-0.011203167028725147
1659093226771,0.0010245725279673934,0.0003252563765272498,0.0009766818257048726,-0.0009430149220861495,0.01761639676988125,8.302772766910493e-05,0.0006875970284454525,0.13856643438339233,-0.003015493741258979
1659093226786,0.001011242507956922,0.000624160747975111,0.0009680348448455334,-0.0006992456619627774,0.021726472303271294,-0.000718280381988734,0.020006213337183,0.262858122587204,-0.03490379452705383
1659093226801,0.001029023784212768,0.0004456840397324413,0.0008432587492279708,-0.0005013071931898594,0.0202681552618742,-0.0009356192895211279,0.0014404421672224998,0.2405133843421936,0.004389554262161255
1659093226816,0.0010207525920122862,0.0007747567724436522,0.0008366282563656569,-0.0007174991769716144,0.02358081005513668,-0.0003010327636729926,-0.01816152222454548,0.21525044739246368,0.03456272557377815
1659093226831,0.0007122497772797942,0.000124280370073393,0.0005517388344742358,-0.003583373501896858,0.015221768990159035,-0.002682379214093089,-0.01858823373913765,0.19569051265716553,0.03987175226211548
1659093226847,0.00066465197596699,0.00038593189674429595,0.0005068045575171709,-0.0033368461299687624,0.018978802487254143,-0.0029952190816402435,0.0005638280417770147,0.22694240510463715,-0.0003336546942591667
1659093226861,0.0006688015419058502,-0.00012639332271646708,0.0006678425124846399,-0.004176471848040819,0.014126107096672058,-0.0011527707101777196,-0.018793534487485886,0.21783381700515747,0.03700441122055054
1659093226881,0.0005916389054618776,0.0001938245550263673,0.0006404109881259501,-0.003952933941036463,0.018572291359305382,-0.0013874422293156385,0.0005732200224883854,0.25449079275131226,-0.012347803451120853
1659093226906,0.0008137812837958336,0.00035825936356559396,0.0009490734082646668,-0.0019269899930804968,0.020230194553732872,0.0012386082671582699,0.0008087372989393771,0.17505960166454315,0.030808325856924057
1659093226925,0.000784196425229311,0.0006730235181748867,0.0009658981580287218,-0.0019201523391529918,0.02266881614923477,0.0010058199986815453,0.0008187054772861302,0.1781698316335678,-0.00403998326510191
1659093226941,0.0006665685214102268,-1.302079817833146e-05,0.0012320982059463859,-0.0027384080458432436,0.018214691430330276,0.0021915689576417208,0.020177170634269714,0.2679414749145508,0.009196395985782146
1659093226956,0.000620334642007947,0.0002942396968137473,0.0012624430237337947,-0.002960056532174349,0.02237287536263466,0.002039165934547782,0.00034479383612051606,0.26676109433174133,-0.003468845970928669
1659093226971,0.0010671681957319379,-0.00011736558371922001,0.0012678635539487004,0.0009381927666254342,0.017757298424839973,0.0018753975164145231,0.02047293446958065,0.23669448494911194,0.027502572163939476
1659093226987,0.0010771079687401652,0.00017844629473984241,0.0013057999312877655,0.0007541985833086073,0.021512502804398537,0.0027993330731987953,0.0011152238585054874,0.24476604163646698,0.04725470766425133
1659093227007,0.0011241796892136335,-4.497013287618756e-05,0.0011383654782548547,0.0004649015318136662,0.018795307725667953,0.0003921889001503587,-0.01840672641992569,0.1834692806005478,0.028846200555562973
1659093227022,0.0011297864839434624,0.0002806902048178017,0.001142047462053597,0.00019253030768595636,0.022800926119089127,0.0005105427117086947,-0.01845468021929264,0.22000712156295776,0.019610030576586723
1659093227037,0.0011673328699544072,0.00018751002789940685,0.0011814938625320792,0.00014678707520943135,0.022460753098130226,0.0006625208188779652,0.000562199333216995,0.25313231348991394,0.02605055272579193
1659093227052,0.001162646571174264,0.0005533049697987735,0.0011903098784387112,-0.000356251432094723,0.026096992194652557,0.0007843907224014401,-0.018838033080101013,0.24117018282413483,0.01662828028202057
1659093227067,0.0011535815428942442,0.00022605404956266284,0.0011342389043420553,-0.0013546604895964265,0.022238804027438164,-0.0017227936768904328,-0.01897566020488739,0.2369733452796936,-0.02415562979876995
1659093227082,0.0011307925451546907,0.0005825156695209444,0.001119869644753635,-0.001645909622311592,0.025518544018268585,-0.0010798887815326452,-0.019152646884322166,0.22645846009254456,0.014479322358965874
1659093227097,0.0009488266659900546,0.0006732953479513526,0.000978826661594212,-0.0025900935288518667,0.024165870621800423,-0.0011104474542662501,0.0002337224141228944,0.17913365364074707,0.03089461475610733
1659093227116,0.000897462188731879,0.001218515681102872,0.0009461446898058057,-0.0025829714722931385,0.02943865768611431,-0.001598672359250486,0.00023013078316580504,0.2357417643070221,-0.00778174726292491
1659093227132,0.0008738411706872284,0.0005674923304468393,0.0008474914939142764,-0.003072086488828063,0.02251855656504631,-0.003596837865188718,6.125326035544276e-05,0.24689780175685883,-0.01721704751253128
1659093227147,0.0008273752755485475,0.0009245462133549154,0.0008081805426627398,-0.0030698226764798164,0.025570539757609367,-0.002596216043457389,0.0002634979609865695,0.22130756080150604,0.0321308933198452
1659093227162,0.0005210353410802782,0.0003022701130248606,0.0010409997776150703,-0.005913009867072105,0.01884528249502182,-0.0014993675285950303,-0.0003133068385068327,0.2467552125453949,-0.03070244938135147
